,activityID,heart_rate,hand temperature (°C),hand acceleration X ±16g,hand acceleration Y ±16g,hand acceleration Z ±16g,hand gyroscope X,hand gyroscope Y,hand gyroscope Z,hand magnetometer X,hand magnetometer Y,hand magnetometer Z,chest temperature (°C),chest acceleration X ±16g,chest acceleration Y ±16g,chest acceleration Z ±16g,chest gyroscope X,chest gyroscope Y,chest gyroscope Z,chest magnetometer X,chest magnetometer Y,chest magnetometer Z,ankle temperature (°C),ankle acceleration X ±16g,ankle acceleration Y ±16g,ankle acceleration Z ±16g,ankle gyroscope X,ankle gyroscope Y,ankle gyroscope Z,ankle magnetometer X,ankle magnetometer Y,ankle magnetometer Z
1757966,7,167.0,33.8125,8.36607,3.11537,2.11776,0.473882,-0.00375474,0.0631264,25.0571,-38.3149,-18.5491,36.375,1.90421,-5.42803,-3.19684,0.248901,0.486309,0.76383,-7.16134,-40.3107,-2.93168,34.0625,1.67215,50.0438,-15.7068,0.0697826,-0.409053,0.260669,-32.0804,34.8361,15.1546
1946841,1,95.0,33.75,-12.6576,9.64553,-3.14557,-0.515233,-1.23436,0.673111,47.0616,-35.8941,-23.5951,36.8125,4.16619,14.1158,-1.9416,0.433036,2.39167,-0.222245,-11.6824,-46.3164,-19.8496,35.1875,11.9183,4.51374,0.541106,-0.310534,-0.349882,-1.36409,-68.7136,22.6255,13.6215
616284,10,114.0,32.4375,-8.12503,5.56741,-1.21653,1.01664,-0.512794,0.0287144,48.9271,-22.4163,-33.4832,37.125,0.814369,9.9323,-4.11837,0.218511,-0.342686,-0.0654971,20.1334,-47.413,1.54926,35.0,11.7902,-1.88601,-1.42715,-0.527256,0.616945,-1.91174,-58.9969,26.8851,-3.61559
1600006,1,146.0,34.625,-10.7933,2.17477,3.14251,-0.574198,0.179405,-1.07271,50.3693,-5.54221,-22.736,37.9375,1.70257,14.1643,-1.52174,0.0599516,-0.0740685,-0.17057,7.81242,-31.866,25.8894,33.75,2.58806,19.2197,-17.1269,0.00202475,-0.168954,-0.200448,-15.1131,-23.3932,-15.7794
1581785,10,128.0,34.9375,-8.91186,3.48369,2.66594,-1.23409,0.418385,0.0277079,19.2983,-21.6215,-10.8959,37.8125,0.409915,10.7911,0.169532,0.259699,1.24707,-0.235416,1.76263,-15.2478,10.3835,34.0,6.13499,4.36588,-0.173307,2.41645,0.746154,-1.22611,-38.7331,29.6052,49.7443
786605,10,118.0,28.25,1.17111,8.53395,-4.97451,0.241653,0.0197613,-0.386192,-1.71905,-19.5187,28.9272,31.875,0.805216,9.06471,-4.34805,0.0786699,0.0535827,0.0147069,-19.3254,-33.998,10.5297,30.125,9.74984,-1.14505,-2.26305,0.0785455,0.0213479,-0.0188575,-36.5516,-1.11897,35.5113
2375971,12,103.0,33.0625,-9.9885,3.57273,3.18834,-0.591221,0.760607,-2.14211,50.3918,-2.31218,-15.8004,38.0625,0.396604,9.49988,-1.45279,0.162608,-0.252679,0.00638664,6.50596,-41.0972,20.0106,32.375,-4.38225,5.62691,-7.08075,0.288239,-0.198033,-1.9133,-13.5122,-37.5943,-1.99961
74137,9,103.0,33.125,2.01561,9.42264,1.77043,0.0276326,-0.0244283,-0.00603901,17.5575,-60.3806,-36.8893,34.75,0.594438,9.65146,-1.21737,-0.00430404,0.0408148,-0.00740866,29.0765,-58.8998,15.2756,33.5,9.57285,-1.95607,-0.446124,-0.00745244,0.0206406,0.00532944,-42.3482,38.6193,-59.8221
1980913,1,136.0,33.3125,-14.2616,3.70883,1.93076,-2.6094,0.140274,0.221365,52.8705,7.47297,-30.9564,36.6875,0.902672,13.9149,-5.36879,-0.116026,0.024456,-0.676617,27.9759,-50.0169,22.4667,35.0625,22.5498,-9.00499,1.9689,-1.84546,0.142906,2.87452,-41.2774,-1.59875,-9.37248
366442,10,151.0,30.3125,-7.99097,2.04104,3.37737,1.56607,0.203878,-0.919459,62.9427,3.57225,-2.11687,33.9375,1.70599,7.53334,-2.08093,0.512239,-0.146079,0.348138,-6.41836,-37.6712,35.1136,33.1875,2.26519,-4.5962,-1.66237,-0.24231,-1.2422,2.02838,-19.3463,-57.6225,-1.12792
1886031,4,86.0,34.0,-5.81419,4.62498,5.71051,-0.890952,-0.147301,0.667365,21.9346,-13.8409,-41.6568,36.375,-0.881396,9.49048,-3.45068,0.11371,-0.132148,0.0363305,9.42939,-36.5438,2.52053,35.0625,9.59063,-1.06528,-2.61249,-0.170577,0.0288712,0.355521,-22.1801,16.5339,44.7117
2556349,4,88.0,34.75,-0.718911,-6.67506,2.47655,-0.867094,2.54644,-4.95333,14.9379,11.2234,-48.225,37.9375,-0.778481,10.22,-1.32154,0.197681,-0.981347,-0.0683015,-14.5755,-40.4207,-6.08474,34.6875,9.6128,-0.186456,-3.31232,-0.0151391,0.000543896,-0.0705021,-48.7302,-9.19795,-5.56041
2831402,10,139.0,30.875,2.59911,-13.1983,1.47061,0.709348,-0.144037,0.0717003,13.6248,52.8761,-33.252,34.0625,3.23602,12.61,-2.34076,-0.0940888,0.634594,0.149785,-23.2057,-45.5486,22.2262,31.6875,4.18631,-7.27972,-4.636,1.59752,1.00065,1.12,-25.4199,44.1775,-22.4183
2125734,7,175.0,28.0625,12.5943,-1.15271,-4.69375,2.0589,-3.18003,0.406611,22.2957,-44.3634,-5.38357,33.1875,2.74824,-4.06594,-1.83074,-1.40118,-1.5923,1.2504,-7.72358,-41.8339,-6.45205,33.8125,9.50075,7.41,5.74652,2.1909,-1.9207,8.55956,-44.3223,3.93592,25.9266
1268273,3,134.0,32.4375,-6.51188,0.374377,4.98313,0.124053,-0.516056,-0.0933474,32.6026,-28.3017,-30.6984,35.625,-0.672066,5.06245,-1.10924,0.0613799,-0.558776,0.113257,-18.4646,-40.1579,3.05199,33.5,8.46976,2.04875,-1.83292,0.0877269,-0.319317,-1.84879,-62.2779,-7.99873,40.9115
263774,0,147.0,32.375,-5.06417,9.54231,8.8996,0.127643,0.766058,-1.50167,-9.86303,-33.2735,-57.9243,36.9375,0.304134,13.1641,0.237344,0.0574789,0.508954,-0.0360965,32.5005,-56.8741,1.23382,34.1875,13.935,-0.104957,-2.65107,-0.312594,1.12592,-2.5618,-65.3104,-0.655633,-14.9978
750847,2,119.0,29.375,-5.61235,1.89995,6.64642,-0.286661,0.367128,-0.520588,37.7536,-29.4699,-43.8469,34.0625,-1.23178,2.36277,-10.7908,0.303526,-0.232542,-0.41597,-16.9964,-12.0306,55.826,32.875,12.6379,-2.50675,-0.449864,-0.530646,0.184385,-1.52036,-41.6058,7.55599,35.3976
898153,8,79.0,32.125,-1.54766,3.1055,9.2434,-0.0107492,0.0335887,-0.000489411,5.30458,-8.72138,-30.0585,35.1875,0.408721,9.34074,2.84597,0.00368204,0.0267432,-0.0356728,4.42047,-18.7607,-7.23093,33.125,9.67584,0.686396,1.35224,0.0728373,-0.0268107,0.0153363,-14.1277,-3.88322,17.7219
1312921,12,114.0,31.0625,-13.6557,2.47422,4.40719,1.34391,-0.0705884,0.384845,49.3803,-10.2004,-15.7505,35.625,2.28077,14.3058,-2.59591,-0.269279,-0.41139,0.299818,-6.2485,-38.6573,-12.946,33.4375,18.1132,15.209,1.8889,2.19819,-0.700955,-2.81889,-34.5049,31.6255,20.5394
1292558,10,115.0,32.125,-11.3435,3.15823,2.32272,0.977294,0.65363,-1.24269,29.4293,14.1936,-17.564,35.6875,-1.50432,9.74146,-0.0553404,0.320033,0.334618,0.0783367,9.08797,-25.4511,12.8895,33.5625,9.38237,0.794678,-2.39463,0.179947,0.0760322,-0.318994,-26.2736,-8.60688,7.14096
404154,5,74.0,33.8125,2.84435,-0.71468,5.97368,0.613302,1.04819,0.391365,16.3148,24.6376,-33.6441,37.1875,-4.01358,9.11102,0.172296,0.636913,1.21047,-0.768484,41.81,-12.9706,5.1117,34.6875,4.66894,-8.27508,0.661898,-0.187441,-1.38235,-1.80119,-30.682,13.2101,-4.48815
1375393,2,104.0,28.875,-6.4378,0.279343,7.13986,0.0367658,-0.0646976,-0.0164113,50.9389,-13.0261,-34.109,34.0625,-0.251214,7.66064,-6.45355,-0.032875,-0.0643242,0.0675231,-6.75892,-27.4811,46.4908,32.75,9.56218,2.33333,-0.318495,0.00494102,0.00735723,0.0194168,-32.1137,-18.7251,13.5146
654664,12,120.0,31.9375,-14.589,1.65121,4.89633,-0.2371,0.597447,-4.37882,41.849,-23.0647,-18.8273,36.5,0.383189,8.30403,-5.66973,-0.308932,-0.34961,0.699528,2.33054,-40.0966,11.8307,34.5625,1.51931,-3.88042,-0.401003,2.0094,-0.277632,1.61877,-39.383,-20.2701,-2.42231
1895038,4,86.0,34.0,-4.65886,5.41698,6.18699,-0.396163,0.122369,0.0382872,8.21023,-35.8094,-29.0287,36.4375,0.166099,9.52906,-2.8123,-0.110917,0.00123001,-0.0763163,-13.2262,-35.1985,8.70046,35.0625,9.31987,-1.47935,-2.84423,-0.0413697,-0.0558918,0.0281546,-27.7416,-3.52745,45.7082
2647292,10,98.0,34.0625,-0.568944,-2.63153,9.23893,0.0209281,-0.0220147,-0.00521306,18.2176,-4.32642,-28.715,38.0,-0.54937,9.6637,0.0396548,0.0660986,0.00166165,0.024943,8.8321,-27.5152,22.4877,33.9375,6.69199,-7.25108,-0.751524,-0.0149637,0.0546982,-0.024305,-16.975,20.108,-8.60301
1844625,9,87.0,33.5625,-8.36763,2.84936,4.33119,-0.01016,-0.00243964,-0.00331597,24.3889,-16.0765,-34.2992,35.9375,0.257453,9.92607,0.247024,-0.0134512,0.0158946,-0.0637726,0.104702,-27.2873,-10.5693,34.75,9.52066,-2.67402,-0.8281,0.00401947,0.00497928,0.0217553,-20.9531,16.3298,39.894
961836,11,97.0,33.125,-6.69713,5.41257,-0.309408,-0.382134,-0.258673,-1.15954,39.407,-9.18087,-4.29936,36.6875,-1.76634,8.51293,-3.65714,0.486194,-1.19224,-0.865783,18.5214,-22.7917,27.6671,34.0625,10.2213,-0.241794,-1.64639,-0.405514,-0.0368833,-0.301112,-34.3437,-0.164531,-9.55202
2732581,10,109.0,31.1875,-3.60285,-5.39511,7.27844,-0.00852735,0.0189795,-0.0159728,31.5339,28.4714,-25.0039,35.8125,0.877927,9.62553,0.646451,0.0525179,0.0368608,-0.0431426,16.1658,-33.7083,12.9856,31.8125,9.02602,-0.403643,-4.16596,0.0184418,-2.40352e-05,0.055619,-30.2213,17.3858,22.9821
2851488,10,158.0,30.875,0.443125,-10.7571,5.24033,-0.584161,1.74299,-0.0856557,-5.07138,36.5131,-14.7424,34.1875,-0.7398435,9.701945,0.0360797,-0.2107995,-0.2243105,0.02184815,21.7828,-37.63785,-3.803,31.75,9.26685,-1.51258,-3.38482,0.0433131,0.0699709,0.213889,-25.4562,-1.51265,25.4319
1147523,9,101.0,33.1875,-8.76791,3.21561,2.51505,0.0138497,0.0169883,-0.0115668,31.2119,-21.6356,-8.9515,35.1875,1.11358,9.66402,0.882921,0.0167942,-0.0285322,-0.0200063,-1.68131,-26.833,-11.9944,33.9375,9.39381,0.459791,-3.2414,0.0334714,0.101943,-0.00482874,-2.08567,-0.0898201,30.0511
817739,10,128.0,28.9375,-0.0376208,0.0257841,9.85372,-0.00221015,0.0211405,-0.00245093,-21.7444,14.9566,-65.3694,32.4375,-0.549088,-7.25612,-7.41721,-1.39669,-0.137772,-0.13657,7.67946,14.8173,23.6309,30.5,5.21235,-9.63638,4.22616,0.453177,-0.932718,1.35487,-7.99613,25.6498,-4.54101
2155089,5,68.0,30.4375,0.366206,4.41279,8.61338,-0.0052804,-0.0137203,0.00891756,-5.01929,16.8902,-33.6521,33.0,0.730775,2.15356,9.26412,0.0104277,-0.0106955,-0.0121015,35.1498,4.0717,-33.2052,30.3125,-1.13957,-8.8018,-4.79694,-0.0258026,0.0326925,0.00696964,-12.3024,29.0192,-7.46225
13392,5,87.0,31.1875,0.423037,5.73303,7.80154,-0.0418128,0.0167988,-0.0131355,-31.9412,16.6324,-39.6585,33.0,1.08942,2.00551,9.81319,-0.0200681,-0.0215881,-0.00490706,40.0116,10.2047,-54.212,31.5625,-0.594743,-7.53496,-6.92164,-0.00875947,-0.0221132,0.0285572,-13.8709,44.6191,-5.0333
229785,12,123.0,33.375,-13.6874,3.9152,4.2864,-1.88873,-0.0624658,3.26163,48.5604,-40.7065,-14.2337,37.25,1.57467,10.0424,-4.1824,0.0249865,0.565173,-0.335631,-16.9273,-59.1297,-11.5318,34.8125,10.8637,0.931202,-1.64708,-0.864527,0.318393,-1.22222,-51.8353,18.5981,36.9607
1543194,11,95.0,35.375,-1.51064,8.39616,2.68326,-0.192675,0.428965,-0.041909,14.7399,-38.2603,-18.266,37.6875,2.44163,8.69147,-3.07812,-0.0587171,0.0742553,0.0643834,-7.84832,-33.4544,1.11374,34.3125,9.57906,-1.59427,-2.91804,-0.0416933,0.08344,0.131079,-46.9966,27.4648,13.6923
682299,12,124.0,31.0625,-10.171,1.08479,0.615341,-1.84947,-0.0529299,4.02869,35.694,-18.2582,-26.3431,36.0,3.5212,9.32191,-3.98991,0.385129,0.43751,-0.383128,13.864,-26.113,29.0629,34.25,10.7499,-0.197745,-2.79893,0.21858,0.422207,-1.96832,-38.9143,-8.71044,6.60923
106277,4,103.0,33.375,-0.997875,8.15219,5.53983,0.202707,0.208039,-1.55714,11.7513,-62.8776,-19.6061,35.3125,-0.347416,9.34713,-2.12403,0.105463,-0.0293798,-0.149471,-17.998,-54.746,-10.439,34.125,9.61633,-0.996729,-1.72509,-1.12805,-0.0618182,0.229263,-56.9297,4.72861,48.242
2067064,0,110.0,30.125,-15.626,6.31321,3.44103,1.60773,0.866857,-2.36232,39.5509,-38.3402,-13.0665,35.625,1.51236,11.4267,0.0325549,-0.757896,-0.0181273,-0.18158,-3.82801,-54.2476,10.8481,34.4375,16.3103,-16.5916,-8.0813,-3.61552,1.15978,-2.90418,-25.4036,-32.2139,6.03674
2541753,4,92.0,34.6875,6.46033,-4.61962,1.03766,-0.968598,2.17442,-1.91506,-20.8741,34.4862,-38.7136,37.75,-0.0548247,9.7372,0.00965449,0.00807977,0.208551,-0.0266353,-15.0039,-49.8149,-10.4055,34.5,9.55538,-0.647386,-2.61544,0.0507742,-0.017137,-0.0602539,-54.1209,2.13036,-9.84748
1681005,0,127.0,34.75,-1.59907,12.2308,11.3287,3.70195,-1.86307,1.42985,-8.5345,-21.8731,-10.838,38.5,-1.33654,22.8776,-0.753255,0.364191,0.372992,-0.187899,-2.3253,-23.7192,-7.08136,34.3125,28.3896,-12.1285,-1.27053,-2.82385,-0.507746,-3.70074,-37.5967,-1.29722,24.1125
338685,10,141.0,30.1875,-5.62906,3.39111,3.67761,1.36095,-0.847376,0.0182323,38.1159,-26.3061,-3.77478,33.625,-0.418074,9.72493,-1.97165,-0.0397006,0.270644,0.0129477,-9.15307,-37.3061,17.4214,33.0,9.25522,-3.11698,-2.17871,0.292428,0.0624208,-0.162853,-49.95,-9.93491,11.8851
1981486,1,144.0,33.3125,-11.5263,2.90468,-0.71967,-0.0339454,-0.71747,2.98061,53.8351,-6.83143,-4.10029,36.6875,2.45009,8.42997,-2.76734,-0.686938,0.284276,0.384117,-4.30201,-47.5311,17.7158,35.0,9.36817,3.98235,-2.18302,0.0141811,-0.130075,0.605805,-35.6662,-12.6198,15.4807
378082,10,98.0,33.25,-2.63989,7.41036,-2.44915,1.39483,-0.168754,-1.45848,2.95457,-35.9328,14.925,36.375,0.874511,9.18455,-3.30171,-0.223679,0.133551,0.0732545,-17.6515,-33.2753,10.9238,34.125,9.78986,-1.07,-2.18593,0.0270482,0.00433633,0.0375646,-46.3129,-1.66653,61.4551
1329463,10,118.0,30.0625,-7.9176,5.33479,2.6361,0.020767,-0.00108936,0.0255419,43.1683,-36.6748,-17.4146,35.1875,1.72092,9.58629,0.816735,-0.0116089,-0.0868356,-0.0186283,-9.2114,-37.7734,-13.6767,33.0625,9.48393,1.06328,-2.81974,0.0370518,0.0271484,0.00314438,-91.8089,-3.81362,43.7812
808040,10,135.0,28.75,-4.3063,5.92814,4.26618,-2.30354,-1.05489,1.04327,2.29612,-26.1179,-9.14896,32.25,-2.34459,6.61419,-6.29447,-0.265443,-0.317692,0.0134538,-4.48751,-12.8015,21.2026,30.4375,13.3611,4.88964,-0.102452,0.69495,0.730998,-1.8271,-13.9819,-0.708857,27.6568
179475,3,130.0,33.8125,-10.3878,0.966857,4.19182,0.832838,0.26955,-1.81933,84.8172,-11.014,-15.8334,36.6875,-0.144573,11.5407,-0.617369,-0.460999,-1.09549,0.884801,8.58539,-62.5094,44.8688,34.875,-2.31297,25.1955,-1.19959,-1.22201,1.01215,-0.0169272,-93.0929,18.1071,33.9508
130356,11,138.0,33.625,-2.77706,4.45244,1.83087,-0.218574,-0.967063,0.50429,33.6119,-35.2939,-3.82007,35.625,-2.2424,6.92088,-5.44175,-1.54516,-0.0334563,0.603788,2.68405,-35.536,37.2159,34.5625,9.48956,0.0135469,0.196821,-0.289503,-0.109568,-0.325121,-41.2919,17.1081,21.2624
1898453,4,85.0,34.0625,-2.16805,5.93687,7.10775,0.41327,-0.30515,-0.450425,5.92348,-35.6834,-23.2506,36.5,-0.383191,9.79935,-2.08743,-0.00539467,-0.464253,0.0627051,-3.81253,-36.6989,1.44225,35.125,9.7795,-1.78947,-2.41311,0.0911146,-0.139627,0.509026,-22.8165,-1.32817,45.2975
2456809,10,78.0,33.5,-9.50169,-1.99085,0.943641,-0.0348582,-0.0384807,0.00940314,48.985,-7.18224,11.7907,36.3125,0.363591,9.84859,-0.0218482,0.0456082,0.0978603,0.0116075,7.69866,-39.4691,24.2398,33.0625,9.44339,-0.380574,-2.65683,-0.00570725,-0.00605024,0.0216262,-35.2085,39.0156,-17.4827
1948971,1,121.0,33.75,-8.25209,4.24909,-0.2518,-0.887798,0.84064,-1.27355,33.2634,-37.5132,-20.4078,36.8125,2.19535,14.7179,-2.94728,-0.128917,1.18179,-0.456101,-12.9958,-39.1859,-9.32386,35.1875,22.39,-6.88353,-6.65138,-0.374258,0.509393,-2.87654,-53.6656,-13.7566,24.0704
153426,10,125.0,33.8125,2.48922,9.37655,1.27734,-0.0196741,0.00113343,0.0108803,-31.6333,-33.7455,9.32681,36.0625,0.429199,9.57377,-1.64605,-0.00859534,0.00870458,-0.00208574,-32.2517,-38.6026,-0.827209,34.8125,9.78155,-1.19234,-1.14334,0.0294086,0.029643,-0.0157581,-17.7787,-3.33495,53.0345
2533045,9,78.0,34.5625,-8.55406,-3.61616,2.46433,0.18671,0.0594199,0.261123,45.0009,3.68126,-19.894,37.625,-0.124191,9.73899,0.240718,0.00119799,-0.0427235,0.12778,-5.11075,-36.9098,2.28044,34.375,9.12428,-0.134077,-4.70688,0.0198441,0.0213348,0.00934648,-37.1902,-2.89929,11.6346
2742599,2,131.0,31.25,-7.95866,0.430405,5.73102,-0.177174,-0.440099,-0.837676,28.7188,-26.9865,-43.953,35.875,-0.814905,6.09251,-4.75494,0.252139,0.127626,-0.776876,-11.831,-39.6405,14.0936,32.0,1.95135,-1.02631,-1.53338,-0.442137,-0.651029,-1.39247,-42.6652,-7.67118,3.53641
1257097,1,114.0,32.625,-8.67799,3.79648,3.89998,0.83153,-0.326257,0.11755,46.3901,-11.2597,16.6763,35.625,0.0663265,8.4213,0.364615,0.284567,0.00490034,-0.230966,-25.8164,-36.4263,23.7073,33.5625,-0.33758,3.12408,-1.23531,2.39056,0.024851,2.1882,-3.86976,-11.5498,42.9649
22964,5,80.0,31.625,7.21685,1.34144,6.37862,0.0123233,0.0397914,-0.0325761,-2.53232,23.0684,-55.0864,33.4375,0.656575,-0.103586,9.54116,0.014746,-0.00682248,-0.0367769,46.5442,13.2627,-45.8961,32.0625,-0.0682964,-7.27283,-6.87928,0.0233199,0.0504035,0.00411406,-19.6682,44.4465,-1.52192
1051064,12,120.0,30.25,-10.4642,1.43026,0.80222,0.936601,-3.25823,2.54109,40.7389,0.0945381,-12.3156,37.0,0.288336,5.0323,0.457095,0.107633,-0.214137,-0.102656,6.99667,-30.7472,11.0561,34.625,9.32606,-1.13891,-2.69192,-0.605998,-0.210949,-0.51675,-33.7746,-8.72093,18.8212
909068,9,88.0,32.375,9.05574,-1.62156,3.37566,-0.155159,0.00943294,0.00436511,-24.3051,10.6663,-7.86919,35.5,2.17465,9.21648,2.02651,0.0055114,0.0445406,-0.0253831,-10.5766,-24.2751,-9.30459,33.3125,9.86604,0.021218,-1.03423,0.0233852,0.000683496,-0.00895585,-6.58394,-3.0146,23.7346
2708511,12,124.0,32.5625,-15.1771,-2.88588,1.93929,-1.188,-0.339063,-0.833411,29.2191,-24.7418,11.5436,37.1875,-1.25017,18.3552,-1.27908,-0.111628,0.141321,0.10126,9.73554,-28.5812,23.3461,32.8125,25.1925,-8.18697,-2.60124,-3.52998,0.608709,4.93124,-38.2115,12.3615,17.712
1669315,0,101.0,34.9375,-0.512057,7.82451,3.27745,0.463702,0.425813,-0.990197,3.67116,-48.9598,-14.6355,38.5,0.235248,9.02665,0.86908,0.0817297,0.830206,-0.166539,-1.44187,-44.8912,-17.5303,34.5,26.2673,7.33468,-7.20152,2.20913,1.56007,7.09792,-39.1022,33.245,11.7277
473961,4,88.0,34.3125,-1.42138,7.29215,6.57554,-0.657892,1.0576,1.65353,-17.332,-28.9879,-35.9199,37.625,-0.689085,8.85055,-3.32896,0.0492732,0.222337,-0.0858104,2.77552,-33.7069,-4.21162,35.0625,9.74213,-1.15349,-1.22116,-0.0788954,0.134053,-0.0355451,-38.3063,13.0415,37.2858
2294686,1,133.0,34.0,-6.35681,4.35934,1.00781,-0.135299,0.15155,-0.0100064,14.1345,-50.1396,-15.6993,37.6875,2.49635,11.2251,-1.45908,0.298433,0.176729,-0.31899,23.8532,-57.5856,6.26547,32.8125,10.4869,-0.385928,-2.80046,-0.529822,0.340826,-0.0639391,-60.4088,17.1966,15.7845
518311,11,94.0,34.4375,-7.1115,-5.04521,5.14639,1.27142,1.70075,0.164498,15.3159,13.125,-30.8635,38.0625,1.25364,8.27101,-4.56967,-0.158347,-0.486058,0.139067,18.4192,-22.9562,9.40126,35.3125,9.7903,0.0706667,-2.38595,-0.158534,0.245137,-0.517597,-20.3061,12.2808,-12.0097
1240540,10,124.0,32.625,-7.7703,5.6161,0.289628,-0.317829,-0.419921,-0.0249893,33.9465,-52.6878,-17.955,35.4375,0.823083,9.93166,1.34144,0.195167,0.0715137,-0.178213,-9.52338,-47.06,-1.78176,33.4375,9.5423,0.649328,-3.31823,-0.0244927,-0.0338219,0.0213163,-62.647,11.7306,45.2841
1132988,8,78.0,33.0,-2.53573,7.33386,6.01989,0.349697,0.0172781,0.0262528,8.19911,-22.1522,-20.1877,35.125,0.47159,9.46173,-1.49003,-0.685631,0.0310488,0.102432,2.77473,-23.7899,3.81186,33.875,9.69921,1.80372,-0.661109,0.0527235,0.013314,-0.0205763,-6.49123,-6.71495,22.8099
1488543,9,87.0,35.1875,-8.94053,2.12287,3.20892,0.480786,-0.156007,0.746834,39.3626,-10.7655,9.20732,37.1875,1.69392,10.1823,-0.153715,-0.223645,-0.754601,-0.0210637,-13.3328,-25.1322,5.82247,34.375,9.46123,-0.755357,-3.27176,-0.0337597,0.133279,-0.0330704,0.955973,-9.24275,33.7601
1342037,0,121.0,29.6875,-3.92478,1.83471,0.860323,-0.297511,-0.601023,3.72461,8.50326,-42.6465,-23.2136,34.9375,1.77661,2.53568,-0.514572,-0.0205967,-0.331698,-0.0658848,-4.71459,-39.6183,-11.3789,33.0625,9.12059,0.834306,-2.39756,-0.220371,0.00516394,-0.379005,-40.5895,19.9687,24.9283
2097994,2,134.0,28.5625,0.13971,-4.33512,6.06084,-0.222548,0.24698,0.55847,34.4044,-1.49351,-66.9534,34.375,0.252154,4.56026,-13.6365,0.398097,0.481753,-0.969165,29.895,-18.5185,48.528,34.0,17.0257,1.30355,-0.814408,0.358567,-0.434272,0.238348,-54.5834,-9.15894,-4.0209
1571383,10,94.0,35.125,-9.36086,2.29473,0.854319,-0.0137868,-0.00706081,0.0131994,28.6646,-44.4475,5.88999,37.75,0.760921,9.76705,-0.750083,0.00868721,-0.0115806,-0.00949845,-19.6268,-29.3923,-14.5018,34.1875,9.58816,0.152287,-2.92878,0.0222102,0.0408809,0.0205643,-12.9764,38.5982,42.3073
505052,11,102.0,34.4375,-5.85707,-3.5662,6.16086,-1.20287,0.808276,0.794411,18.6623,2.16396,-39.8154,37.9375,-0.85974,5.84781,-7.54287,-0.509232,0.327298,-0.170455,12.4053,-25.4493,22.9128,35.25,9.98439,-0.921236,-1.95332,-0.236297,0.362718,0.139487,-40.6018,-4.54529,13.2277
554560,1,134.0,34.1875,-6.6536,4.63794,2.19554,0.778575,-0.850981,-1.00223,40.087,-14.6123,-41.9775,38.125,-0.180183,5.27712,-2.5337,0.107323,0.714612,-0.303102,24.6649,-43.4501,15.965,35.3125,21.7239,-2.43835,-11.1622,4.40989,0.465632,6.67909,-48.3524,-4.92962,-3.91822
2295699,1,137.0,34.0,-10.1342,2.77017,2.41911,0.420156,0.686898,-0.476801,50.1983,-47.9639,-7.51797,37.6875,2.21429,8.76775,-3.04376,0.0755057,0.505942,0.0234201,6.57687,-51.4226,25.2869,32.8125,9.11618,4.20925,-1.87829,0.298302,0.125732,0.557749,-19.5905,-2.0325,35.6651
1004345,10,137.0,32.0,-1.04484,8.78182,-4.66216,0.801624,0.993511,-0.0391087,11.9174,-13.5963,23.0484,36.75,1.65223,9.69237,-0.23032,-0.120055,1.16972,0.0888885,-6.17343,-23.1526,22.8792,34.4375,9.68166,-0.500078,-2.15199,0.189127,0.0295183,-0.165797,-15.5304,-10.5727,26.8216
2362667,12,97.0,32.9375,-12.0698,4.07063,1.8854,0.235176,-0.261957,2.32116,46.3522,10.6863,-14.5587,37.75,0.901595,10.0649,-1.17443,0.211644,-0.000567769,-0.110386,1.94233,-42.8604,17.3098,32.1875,9.91478,-1.60677,-1.64106,-1.50362,0.187812,-0.999044,-39.6703,-9.58358,16.8814
989283,3,98.0,32.1875,-4.10027,-0.26055,8.21585,0.152083,0.0635122,-0.350019,31.4618,15.3011,-44.4495,36.5,0.275865,7.66364,-0.20994,0.172461,-1.49738,0.116559,16.1985,-41.5576,-1.19926,34.0625,8.92335,-2.15495,-3.50013,-0.672738,-0.263374,-0.619823,-42.2746,4.19731,15.6865
194376,3,160.0,33.6875,-3.00653,3.7437,2.98444,0.101591,0.149039,1.51964,72.8606,-29.1127,32.3673,36.9375,0.621014,3.84482,-2.35965,0.0138126,0.286052,-0.0789933,-56.9567,-53.7644,24.3963,34.875,16.6186,6.17815,2.3541,-1.86009,-1.8057,5.58966,-51.9986,-50.1106,35.4864
274713,10,138.0,32.125,6.78166,5.52525,7.12774,-1.83546,-0.125339,0.583042,-37.4151,-3.45282,-52.4268,36.75,0.229352,14.1431,0.194086,-0.286851,0.229837,-0.120604,13.2256,-54.6428,-13.5198,34.0,15.7229,0.141649,-1.66953,-0.521057,1.15307,-2.19186,-33.4342,10.5636,11.226
1978587,1,107.0,33.375,-11.0641,3.82208,0.438779,-2.66081,0.59294,0.142556,66.4822,11.4825,-0.824934,36.6875,1.3627,10.1773,-1.05028,0.473815,2.74305,0.0727582,-0.797208,-58.7607,26.4053,35.0625,5.70493,10.2227,-15.0325,1.778,2.56873,2.16082,-7.98776,-55.2035,13.9254
2257701,11,82.0,34.0625,-9.53808,2.83791,-2.19067,-0.0695847,-0.411752,-0.908888,27.8375,-18.851,-11.1925,37.125,-3.12553,6.91339,-6.96785,0.322774,-0.656125,0.26568,7.9117,-25.0297,21.3392,33.0,9.4888,-0.116958,-2.42647,-0.583734,-0.0185817,0.596612,17.0962,15.5248,17.6193
2610105,10,110.0,34.5625,-11.3363,-1.06333,1.22093,1.04583,0.110289,-0.0477194,33.2052,20.7125,10.7349,38.125,-1.923,9.2362,-2.57814,0.130776,1.11773,-0.289812,31.2326,-26.9064,6.56564,34.5625,9.954,-1.2546,-2.95489,0.172357,-0.283758,0.452747,1.50767,19.8311,35.4303
241844,12,122.0,33.0,-10.1353,8.04515,6.75038,1.11883,1.05082,-4.30302,1.84905,-58.4296,-24.6526,37.1875,-2.35668,10.1024,-8.31952,-0.35798,-0.19781,0.205367,5.60667,-63.3541,1.55247,34.5,19.2427,-6.03197,-10.8952,-1.87977,1.90526,-3.125,-60.5779,-26.7795,12.5351
907205,9,86.0,32.375,-8.9515,2.83969,2.74449,0.0144338,-0.0204785,0.0239976,27.0592,-20.0567,-16.7739,35.4375,0.246936,9.55613,1.21606,0.00618954,-0.0330815,-0.00194955,-2.78425,-26.2012,-10.4147,33.3125,9.7788,-0.240876,-1.4194,0.0168141,-0.0207074,0.0183971,-6.91791,-2.68328,24.6073
1479651,9,91.0,35.125,-8.22308,3.17761,2.98519,-0.0615539,-0.188248,-0.186297,27.0355,-16.5824,-23.0155,37.0625,0.327565,9.77392,0.0551837,-0.0691954,0.0717634,-0.142876,8.95137,-33.0301,-10.7572,34.3125,9.72283,-1.26194,-1.87671,-0.0374505,-0.0976945,0.0797636,-26.5163,23.1229,22.8467
398187,5,77.0,33.75,6.84615,2.55808,6.33048,0.0310163,-0.00637234,-0.0204527,6.39663,1.6334,-44.7727,37.0625,1.4288789655172414,3.658229310344828,8.60961551724138,-0.0108153620689655,-0.0065014931034482,0.0154521206896551,30.397820689655173,-3.1972493103448274,-27.51453448275862,34.625,-0.400637,-9.38483,-3.70524,0.115214,-0.00141848,-0.0473331,-13.0084,23.6165,-4.27415
1226665,1,120.0,32.5625,-6.55884,3.25922,0.854549,-0.109155,-0.0425689,0.509659,44.4858,-38.6004,-8.35058,35.25,0.977685,7.27125,-2.20944,0.0854144,0.500876,0.0304791,-19.873,-47.9881,17.6101,33.375,9.1901,-0.19132,-2.39048,-0.979721,-0.0821197,0.480752,-53.4107,-2.02129,34.9788
821838,10,135.0,29.125,0.109259,-0.0143286,9.7406,-0.0157772,-0.0167471,-0.00301561,-22.2695,14.0928,-63.5211,32.5,-0.295949,11.3558,-5.73067,0.424445,0.858508,-0.154268,6.17051,-28.8833,5.77522,30.6875,-3.22757,-2.29181,8.6476,-0.0446756,-0.0250455,0.0150436,23.4102,12.5964,-52.7157
1257551,1,117.0,32.625,-8.00413,4.53731,2.48355,-2.84382,0.607218,-0.159353,32.4336,-33.2475,-17.2824,35.625,0.553522,10.9015,-0.137993,0.270269,1.25368,-0.305961,-11.4524,-34.3376,-13.7118,33.5625,12.1736,15.3289,-8.28323,1.99582,-1.00263,3.47414,-34.1268,31.9937,20.8239
2408331,0,140.0,33.0,-0.865439,2.15152,0.789618,-0.770207,-0.899372,-0.0781279,-18.2532,-34.2648,-17.3048,38.375,1.66907,11.022,1.50811,-0.19402,0.167995,-0.0283603,-1.61198,-38.3121,-13.3387,32.4375,14.0318,1.15372,-3.42968,-1.08797,0.8385,-1.77328,-39.6727,-2.07439,31.0559
1901803,4,88.0,34.125,-5.42429,2.40038,7.60973,0.239118,-0.0402781,0.101497,7.40192,-3.27371,-59.6702,36.5,0.0881084,9.87633,-1.61449,0.00640482,0.00578246,-0.0504661,-2.39357,-39.7038,-11.5032,35.125,9.33335,-0.788117,-3.81312,0.00191485,-0.00644938,0.0106142,-27.9106,18.5076,49.5115
2283537,10,94.0,34.25,-14.524,2.12934,-0.954394,0.835136,-0.269928,0.365916,30.2337,-1.731,-13.5321,37.5625,2.7266,14.7043,0.857039,-0.0889039,0.303381,0.114889,24.1982,-41.8518,-5.80683,33.125,14.5998,0.454298,7.42415,1.71072,-0.434815,-2.88621,-49.1812,-0.613808,16.2702
1554543,11,96.0,35.25,-5.20062,2.04602,2.14907,-0.265357,0.375104,-3.78724,30.3574,11.4022,-34.8716,37.6875,-5.14664,3.78736,-8.03977,0.571343,-0.525853,-0.816345,27.0624,-25.8601,16.401,34.3125,9.56031,1.76348,-0.276388,-1.3118,-0.136841,-0.0129718,-21.0108,11.1037,13.0936
730646,10,133.0,30.0625,-8.45831,9.05721,2.61544,-0.0517957,0.479287,-0.575734,20.7012,-17.8706,-22.6954,34.9375,1.22293,8.04702,-4.29845,0.4862,-0.736373,0.379734,9.79528,-23.2404,10.8635,33.9375,8.91368,1.89532,-1.98178,-0.507915,-0.00814587,-0.382249,-25.1161,5.38497,5.16138
2650519,1,148.0,34.0,-9.75894,-0.633353,-0.219413,1.85041,-2.10462,-1.53257,40.1436,32.4922,-6.01705,38.0,-0.390069,6.33575,-1.99885,0.0630749,-0.707971,0.112438,22.7255,-39.4855,3.19376,33.9375,8.89806,-1.09352,-3.27544,0.0963747,-0.283564,-1.04258,-38.4303,14.2637,47.7775
379056,10,97.0,33.375,-6.19945,6.87885,2.84907,-0.00629601,0.0739422,0.0342953,14.7526,-42.2741,-19.0712,36.4375,0.466441,9.52707,-2.96173,-0.0513976,0.0358132,0.0265244,-17.6179,-33.8149,8.71722,34.1875,9.68298,-0.880728,-2.03384,0.0398244,-0.019246,0.0050798,-46.3077,-2.10634,61.3266
1126416,8,79.0,32.9375,-3.00832,5.49636,8.02035,0.226477,-0.203895,0.0300375,10.1897,-19.6554,-24.5375,35.0625,0.822158,9.43349,0.0652506,0.213894,0.0111289,-0.0847895,2.45171,-24.4194,0.570086,33.875,9.66269,1.76566,-0.622658,-0.0251046,-0.051083,0.00224714,-6.62987,-6.19306,22.8088
138662,11,133.0,33.6875,-9.97598,6.11332,3.026,-0.274448,0.758627,-0.91389,24.5353,-24.6668,-19.225,35.75,1.7378,9.90253,-2.51399,0.105558,0.419498,-0.305019,-8.02164,-35.1664,23.6929,34.6875,9.83917,-0.693439,-1.84045,-0.0202052,0.409029,-0.178544,4.87742,15.9179,4.65708
1722841,2,135.0,34.125,-6.39762,6.05579,8.19862,0.60188,-0.0749923,0.0365949,20.1545,-18.0914,-44.7769,37.625,-0.250705,10.4454,-6.69492,-0.0771862,0.0160749,0.303765,-3.26263,-38.928,16.9692,34.1875,12.1741,-6.79661,-0.15787,-0.582083,-0.0422123,-0.891643,-40.9538,-13.1123,20.9941
878968,8,78.0,31.75,0.0172496,5.62511,8.10372,-0.0162794,-0.00710573,0.0131654,0.800885,-17.3453,-24.5449,34.625,0.154301,9.26911,3.26752,0.0142887,0.0170048,0.030269,4.50987,-17.8586,-8.45413,32.5625,9.11695,-3.89059,-0.323025,0.0213972,-0.0378471,0.0261258,-22.7126,-0.890041,14.482
1771811,10,137.0,33.8125,-6.43871,4.71873,2.92974,1.71063,-0.424689,-0.429819,32.2589,-39.0602,-1.76142,36.375,-1.83679,9.69854,-0.990527,-0.197115,-0.0315092,0.329106,-1.64421,-42.0484,-15.7148,34.0625,9.16065,-0.366896,0.543115,0.871763,0.102538,-0.595784,-43.7821,21.3885,15.8382
584722,10,94.0,33.5,5.26241,2.1424,-3.31369,-0.513599,-3.14616,-0.82999,-46.7402,3.27951,-0.748145,37.75,0.756508,8.94954,-4.69704,0.172902,-0.550823,0.202689,-11.6047,-48.1256,-0.159055,35.125,9.25706,-2.12883,-2.30059,-0.262165,0.0606972,0.152342,-45.0218,42.7698,34.6872
851048,5,69.0,31.3125,6.88073,2.67059,6.21516,0.0320891,-0.00809456,0.00708044,6.1598,1.65602,-45.4641,33.6875,1.26646,-0.519419,9.59228,-0.0158247,-0.0227904,0.0116148,31.7053,9.23725,-28.1077,31.75,0.729816,-9.84454,0.592652,0.00700899,-0.0341721,0.018245,-16.0055,18.9299,-9.00321
2681948,12,114.0,33.3125,0.643351,-1.16552,0.323073,-0.0942641,-0.822975,-1.54501,-1.52057,65.7368,-11.3835,37.625,-0.244525,9.78438,1.32258,0.403816,0.794144,0.0344691,-4.44572,-64.4132,10.9015,33.3125,11.5575,-0.692698,-3.25065,0.726949,0.385376,0.941002,-49.9909,22.8426,10.9923
1404732,10,130.0,27.4375,-4.82286,6.60487,-5.3272,-0.0310653,0.0351273,-0.0224306,26.1779,-8.82194,7.51623,32.375,0.0843832,9.62958,0.864387,0.000749906,0.0564375,-0.0434783,2.74616,-24.8235,6.49661,32.6875,9.44772,0.873032,-2.74175,-0.0163623,0.0101867,-0.01291,-49.3192,5.79555,4.4902
2692964,12,121.0,33.0,-1.80478,-11.3529,-3.91284,-0.246342,-0.558808,0.587296,10.5409,41.7685,-2.995,37.5,3.87811,14.7139,-2.72318,-0.583907,-0.0924361,0.201901,-0.515555,-37.9857,5.70262,33.125,23.438,4.13743,-8.71569,2.87099,1.40478,2.99251,-21.9513,35.6016,9.51602
648525,10,120.0,32.0,0.871744,11.3896,4.32531,-0.296183,-0.935334,0.161705,-41.6252,-41.7116,-20.0397,36.5625,-1.28869,10.8405,-4.46919,-0.707682,-0.767493,1.06896,-11.9921,-52.315,-4.95113,34.625,9.00063,0.847951,-3.98104,1.86383,0.00347349,-0.823334,19.1705,56.7299,42.6042
317286,7,156.0,30.875,-9.75744,-4.46785,-0.475866,0.423456,2.76135,1.51793,-20.0723,-16.7122,-47.3291,34.0625,-2.66075,2.95979,-1.17716,-0.408672,1.55144,-0.441385,28.5934,-35.6545,-19.8802,33.3125,15.5266,-9.41577,-2.80851,-2.19771,0.969436,0.086449,-58.2239,2.18384,-6.60852
432111,8,84.0,34.0,1.99652,10.1851,2.15245,-0.629038,-0.385352,-2.00747,-6.46026,-23.5378,-1.03559,37.4375,-0.319595,9.34468,-2.47201,-0.111976,-0.215451,0.106532,-1.11237,-21.8185,5.18395,34.75,9.79625,-2.59292,-1.67475,-0.0153906,-0.0458767,0.0614019,-15.4005,-5.24986,24.4017
285819,2,119.0,32.0,-6.42011,2.54635,6.09332,-0.638998,-0.173777,-0.471625,6.38684,-35.0987,-48.5246,36.625,0.204758,6.39957,-8.95805,-0.138184,0.00312358,-0.539451,-8.73915,-51.8804,33.3431,34.0,13.3844,3.64938,-1.67669,-0.0130423,0.39604,-1.35947,-67.2731,2.08651,25.1518
900326,9,81.0,32.1875,-2.49877,7.79638,2.63199,0.145822,0.430554,-0.0491352,12.9591,-24.6323,-28.9289,35.25,-1.0829,9.41072,1.34732,0.143016,-0.119855,-0.168588,7.89162,-26.0931,-12.3364,33.125,9.64773,1.0095,-1.00401,0.0148049,0.0499677,0.0103895,-6.66383,-4.68107,24.8315
405847,10,91.1818181818182,33.8125,-13.3307,4.32357,3.59759,-0.340605,0.0507886,-3.85384,44.7879,0.494238,6.04315,37.1875,0.927546,9.63938,-2.83758,0.0315241,-0.189625,-0.00196793,4.44992,-26.716,31.616,34.6875,9.72263,-1.2999,-1.87647,0.0120143,0.0398552,0.0410091,-61.3918,-32.4512,-15.4928
2639563,3,121.0,34.125,-6.83971,-0.322376,-1.06194,1.7962,-0.428191,-1.8393,40.8988,-8.38201,-14.9569,38.0,-1.77584,6.94779,-1.25153,-0.152417,-1.0719,0.123754,-0.734685,-25.0906,14.7932,34.0625,10.4409,-1.19243,-1.63824,0.513772,0.263348,0.476106,-35.0441,-3.66051,8.09719
1126894,8,84.0,32.9375,-2.6636,6.4698,6.86761,0.00988404,-0.0112391,-0.00166706,9.21973,-22.0848,-23.471,35.125,0.756417,9.64438,-2.18244,-0.0474598,0.0158883,0.00272176,2.26143,-23.9,3.80891,33.875,9.58453,1.7671,-0.739237,0.00901284,0.00224519,0.0115022,-6.63143,-6.71131,21.6747
1888680,4,89.0,34.0,-6.12593,3.72579,6.70954,-0.321795,0.458,0.211364,28.9424,9.73599,-41.289,36.375,-2.63994,8.36583,-3.55633,-0.356532,0.0538164,0.38179,16.4063,-36.0255,0.592072,35.0625,9.67907,0.907651,-2.50805,0.0100729,-0.0426795,-0.00545886,-34.0708,20.5854,38.7082
453943,9,90.0,34.1875,-8.51296,4.64054,0.859106,0.0327272,-0.0283792,0.0289951,24.8472,-24.4145,2.06827,37.5,0.309726,9.06626,-4.35703,-0.0172688,-0.0197277,0.0206432,-8.27244,-25.2962,8.38021,34.875,9.55192,-1.53167,-1.25935,-0.00821956,-0.0325979,0.0371254,-18.7327,-16.4348,36.5638
899265,8,79.0,32.1875,-0.827115,8.22192,5.00333,-0.0387143,0.0351993,-0.0150078,4.11751,-21.3005,-19.6492,35.25,0.331447,9.37837,2.80573,0.0181162,-0.0607318,-0.0104169,4.75485,-18.5462,-7.47072,33.125,9.56116,0.649781,1.27412,-0.0144916,-0.0124633,0.00184951,-14.1102,-4.9902,17.9575
2101931,10,128.0,28.375,-8.67993,2.26156,1.98076,-0.926273,0.198927,-0.359731,36.2674,0.544829,-25.5003,34.0625,-0.700187,9.8527,0.0750291,-0.00555761,0.337295,-0.0980477,20.3767,-28.0489,2.26646,33.9375,10.3102,-0.0835635,-2.49543,-1.16465,-0.0151901,3.18835,-28.9651,-2.19934,-4.78984
1271985,10,128.0,32.3125,-7.02201,3.45087,4.88814,1.23913,-0.0428508,-0.413623,49.0038,-12.4012,3.16104,35.625,-0.0404821,9.39302,-0.763386,0.387202,-0.464361,-0.486524,-13.2676,-39.3387,22.8241,33.5,-0.850418,8.23037,-3.12455,2.65168,-0.0283832,2.04581,-27.9664,-6.77926,30.677
1746224,7,158.0,33.8125,-7.70544,-7.10372,-0.667161,0.102534,0.0536376,-0.432873,16.7525,-46.3131,-22.9456,36.4375,-3.26508,-6.20761,-4.02366,-1.06549,0.0205879,-0.562549,2.43577,-43.4046,26.9046,34.0625,14.7689,-6.1321,0.173332,0.82662,-0.612408,-4.62165,-21.1676,-36.8826,22.5096
27306,5,82.0,31.8125,7.13833,1.30341,6.3006,0.0265759,-0.00117367,-0.0111513,-3.19737,23.5406,-54.958,33.5625,0.61856,-0.0658136,9.54035,-0.0118667,-0.0153143,-0.0267555,46.6706,12.807,-45.4044,32.25,-0.0812153,-7.00287,-7.38275,-0.0205701,0.0119445,-0.0144801,-19.5442,44.6384,0.335796
2707700,12,123.0,32.5625,-6.83571,0.0573512,-1.02468,0.223462,-1.5276,-1.46333,28.7665,17.3313,-17.7129,37.1875,0.163498,9.85578,0.942527,0.379903,0.352956,0.209423,10.5039,-21.7598,9.49429,32.875,12.5923,0.597377,-3.94266,0.755947,0.679209,1.49919,-26.9359,28.1494,17.5916
763034,10,122.0,29.0,8.36776,-0.0740431,6.09274,-0.509114,0.0323347,0.38987,-17.4436,-10.3204,-23.103,32.875,0.181984,9.33575,-3.54708,0.0194895,-0.0874379,-0.0250648,5.69757,-24.4085,19.1351,32.0625,9.46783,-0.757285,-3.04014,-0.0872048,0.00332095,0.0175609,-18.4173,5.22882,15.8737
1856168,9,87.0,33.6875,-9.38494,2.47806,0.122079,0.297681,0.838628,-0.266275,33.2349,-29.3179,-15.4706,36.0625,0.937967,6.93494,-7.39767,1.15785,-0.365463,-0.163148,-16.2883,-31.7436,19.3759,34.8125,9.58229,-0.340341,-3.04156,-0.0172613,0.0831613,0.0413382,-33.5796,19.1657,45.8032
1068078,10,119.0,28.625,-8.14794,6.22504,0.166455,-0.320248,-1.602,-1.89815,23.4929,-17.6694,-0.158088,36.5625,-0.883897,9.85485,0.30402,0.18233,-0.73509,-0.255143,3.82126,-20.7862,8.69238,34.375,10.0345,0.661238,-0.496222,-0.0648936,0.0523381,-0.173341,-23.0053,-6.01732,10.8401
79115,10,119.0,33.1875,-6.19886,7.10502,-1.53925,-0.725598,0.0847629,-0.262195,67.1227,24.9086,130.806,34.875,4.98344,2.73775,-8.04644,0.0879518,-0.0676871,0.0817151,-65.2278,-31.2749,39.1331,33.6875,8.52607,4.41132,-2.92752,0.0242518,-0.0514038,-0.0133807,-65.1282,-55.3428,23.9028
1655799,12,113.0,34.75,-11.6573,6.01766,3.57845,0.220198,-0.0169731,-3.30974,55.2761,-22.3055,-17.5263,38.3125,-2.27529,11.5018,-1.81747,-0.302682,-0.295427,-0.133738,-5.61406,-60.377,15.5236,34.375,22.3823,2.63124,-4.78103,-3.96374,-0.450331,-3.45664,-23.3137,-39.2289,20.0936
1449523,8,82.0,34.9375,-0.379852,7.20408,6.12959,-0.0405374,0.0164744,0.00441824,6.87838,-25.8043,-19.7692,36.8125,0.696533,9.78748,2.2302,0.00471459,0.0652066,-0.0325913,0.483385,-23.6954,-5.65191,34.125,8.86797,-3.0621,-3.95814,0.0514453,-0.0300637,0.0191882,-25.7254,2.73553,20.7456
1244868,3,115.0,32.625,-7.714,4.24848,4.37475,-0.0523982,0.054321,-0.0103913,32.3369,-38.0992,-42.4493,35.5,0.838598,9.74702,1.88441,-0.0480197,0.0657657,0.00837753,-11.0989,-47.3828,-7.43106,33.5,9.38272,0.23487,-3.58743,0.0683563,-0.00787762,0.0225917,-61.5399,14.1241,46.1362
1470394,8,79.0,35.0625,-0.845818,-8.64816,-1.86777,1.64526,-0.293864,-0.045417,-2.07916,25.6922,1.72117,37.0,-0.424987,4.41219,8.61631,0.241129,-0.0584416,-0.0527981,6.63444,-6.4971,-19.8072,34.1875,9.15997,-3.22463,-2.87363,-0.00508532,-0.0350854,-0.0282719,-37.2191,5.63993,25.3823
359369,6,181.0,30.1875,-2.63195,5.20477,-7.21403,5.50262,-1.28925,2.5448,67.0006,-19.7159,-11.9041,33.875,-0.128656,8.4699,-3.66605,-0.849412,-0.198968,-0.550675,-35.3763,-56.2084,17.3657,33.125,-9.21041,-18.0816,-1.34906,-1.81493,0.470452,0.992615,-45.6195,-41.9415,34.7787
1597479,1,131.0,34.6875,-12.0493,1.55667,0.816539,-0.922566,0.140883,0.405522,26.5171,-10.1173,-45.888,37.9375,1.12804,14.6836,-2.96651,-0.0678528,0.417924,-0.46156,16.0605,-34.4774,12.2842,33.8125,14.7845,-0.155851,-1.71589,-0.461979,0.154386,-0.733511,-50.9113,3.78738,-4.87399
2271265,11,95.0,34.1875,-9.22117,-0.465433,-2.17478,-0.248363,0.841438,0.060088,44.9808,2.45446,-0.5954,37.375,1.07528,9.14864,-2.94947,-0.148337,-0.107136,0.0302176,-13.2065,-35.0771,15.1861,33.125,9.51326,-6.64798,2.28365,-0.254643,0.149819,0.861374,-33.443,35.5285,8.62469
880817,8,73.0,31.75,-0.251296,6.00487,7.90598,-0.016585,-0.00364898,-0.0126305,0.474081,-17.1133,-24.1915,34.6875,0.0371713,9.08068,3.18857,0.0234265,-0.041164,-0.00533329,4.7348,-17.8695,-8.083,32.625,8.96665,-4.00354,-0.323866,0.0309864,-0.0012318,-0.0105293,-22.3845,-0.457087,14.2364
241207,12,120.0,33.0,-14.7615,8.0291,5.14164,-0.879165,1.0747,1.53672,51.4782,-13.8963,-13.631,37.1875,2.01082,12.0883,-7.66603,-0.520254,0.152882,0.269361,-16.7326,-45.6246,-10.53,34.5625,14.9252,13.4985,4.56809,-0.464525,0.45654,-3.72803,-38.6968,36.4349,29.6167
533815,10,93.0,34.625,-9.36305,8.38186,-1.55247,0.0588653,0.924351,-1.68965,13.5805,-12.3419,-22.7857,38.1875,0.443704,8.41312,-6.21108,-0.63792,1.13982,-0.875162,11.0412,-21.2882,0.58853,35.4375,12.3468,-2.3932,-0.183427,-1.0171,0.0516435,-0.938384,-26.059,13.7597,0.0597125
1472706,8,79.0,35.0625,-7.38495,3.31461,2.07358,1.47086,-0.670155,0.00617012,36.149,-12.8471,-19.2509,37.0,0.945285,7.40567,-4.61116,-1.35667,0.188733,0.06648,5.25266,-33.6904,11.0765,34.25,9.46395,0.612797,-3.43458,0.0895853,0.0100371,0.0921366,-38.4689,-8.98218,22.8419
1025664,10,131.0,31.375,4.1306,8.97107,4.0359,-0.566461,-0.183622,-0.660676,-15.774,-35.2584,-12.2809,36.75,1.04675,9.32771,1.23129,-0.00806817,-0.117464,0.0286843,-13.539,-33.85,9.88227,34.4375,9.61053,0.20043,0.467029,-0.0659134,-0.0755476,0.00899995,-38.4476,-17.852,20.99
2241327,4,79.0,33.8125,-6.17084,-1.08549,7.49485,-0.358037,0.489356,0.399076,9.4434,9.2772,-56.7321,36.6875,-1.15337,9.26435,-3.60976,0.0115426,0.0732886,-0.0962916,1.92447,-38.8426,-0.902738,32.8125,9.38181,-1.20986,-3.34693,0.0100623,0.0122844,-0.0309388,-30.1063,1.75199,49.6651
2346487,10,92.0,32.9375,-9.27486,2.63761,1.08537,-0.0559539,-0.0403043,-0.0126568,39.2988,-17.4811,-16.867,37.625,1.71951,9.76537,-0.539106,0.0203192,-0.00691451,0.00221737,2.75181,-36.9333,-5.98398,31.875,9.42319,-0.450729,-3.35122,0.0262965,0.00831814,0.0281471,-20.8285,14.7346,25.0039
967024,11,96.0,33.1875,-10.9071,3.51941,0.673077,0.209654,-0.117709,-0.0175358,44.4465,2.15451,-11.5258,36.75,-5.23689,7.57376,-4.99476,0.32153,-0.416693,-0.116416,35.9242,-16.0345,19.4824,34.125,9.21548,-1.4536,-1.26329,0.878706,-1.33154,0.358916,-29.672,-13.245,-8.98707
907442,9,87.0,32.375,-8.64304,2.95252,2.90268,0.00828377,-0.000666337,-0.0113738,26.8385,-19.4999,-16.7653,35.4375,0.399494,9.59331,1.2187,-0.00445497,0.0356844,0.00149536,-3.0073,-26.4229,-9.80553,33.3125,9.77629,-0.0880376,-1.53614,-0.0224444,0.00274744,0.0279666,-6.80061,-3.12703,24.4778
246090,10,124.0,32.8125,2.85005,8.26249,4.28852,0.354697,0.150035,-0.284417,12.7503,-41.8353,-35.7085,37.125,-0.245326,9.61616,-1.27119,0.0518685,-0.101708,-0.00819996,22.7548,-40.1119,12.2632,34.375,9.88384,0.054047,-0.41682,0.00107835,0.0189632,0.0273928,-43.2085,-4.26034,-18.3115
152734,10,126.0,33.8125,2.41877,8.57454,4.85832,-0.054334,0.0636567,-0.00426598,-37.9397,-25.9589,-17.7133,36.0,-0.112013,9.72424,-1.92739,0.0592942,-0.0452513,-0.0372911,-26.7322,-41.5794,-13.1279,34.8125,9.9317,-0.481605,0.05007,0.00928632,-0.0199863,0.057771,-16.466,26.3303,16.8255
1212724,11,113.0,33.625,-10.4505,4.20816,1.71675,0.165971,0.0866238,-0.279737,20.2291,-37.4492,-37.0482,36.0,3.51545,8.29582,-5.38063,-0.107353,1.16309,0.0237911,-17.0794,-42.1392,-1.01625,34.4375,9.83162,0.183372,-2.27046,0.229587,0.00718372,-0.35732,-45.7831,13.48,50.5892
1527291,4,90.0,35.4375,-4.62214,1.7147,8.00893,2.15898,-1.45998,-2.33247,-1.62617,-1.55625,-67.6675,37.5625,0.369481,9.76591,-1.10566,-0.335463,-0.185824,0.393609,-5.35634,-39.5945,-11.5245,34.4375,9.43022,0.688008,-3.31962,0.0678287,-0.0255272,0.324129,-39.4243,21.5028,40.9576
590209,10,101.0,33.375,2.17196,9.3287,4.12082,0.531136,1.60837,0.0189872,-27.7278,-43.2486,-5.51788,37.6875,0.567227,8.57412,-4.62181,0.189071,-0.158254,0.0374703,-21.3199,-44.5263,8.27885,35.125,9.69958,-0.646729,-2.80691,-0.293803,0.123528,0.0055407,-38.9419,15.1937,59.9655
993370,10,116.0,32.25,-1.62299,9.69351,-0.825155,0.00490899,0.00262096,-0.0113118,5.59861,-25.879,16.6233,36.625,-0.0721522,9.81729,0.706057,-0.0287764,-0.0116765,0.0258587,-7.36365,-27.3262,19.3007,34.25,9.78038,0.0628731,-1.42126,-0.000170297,0.0111335,-0.0215237,-15.305,-4.86884,37.1542
510667,11,105.0,34.4375,-7.31936,7.96981,0.827266,0.965822,0.459664,0.625979,21.4299,-22.5346,-18.7035,38.0,-0.0345812,8.00463,-5.59888,0.160381,-0.746757,0.443224,6.00017,-28.6087,13.0051,35.25,10.0212,-0.627766,-0.719897,-0.369916,0.525894,-0.149222,-3.01494,7.21165,-16.9087
718544,0,123.0,30.3125,-5.15136,-1.19008,0.967617,-0.527599,-0.511828,1.61042,-3.63135,-32.7138,-36.4641,35.25,0.733418,10.3078,-4.31467,0.65764,-0.507352,0.521694,5.73745,-39.3893,7.59313,34.0625,10.778,-2.41149,-1.39568,-0.279554,0.383218,-2.0338,-38.7397,12.9984,24.9111
1798545,5,68.0,33.375,4.96574,-0.255713,8.23617,0.00307396,0.01512,-0.0117678,14.4445,23.7895,-39.3764,35.5,0.606023,-1.3481,9.23452,0.0200462,0.020753,-0.0236258,37.5504,17.3892,-27.2009,34.5,-0.12774,-9.61784,-3.27651,0.00331736,0.0120202,-0.00417592,-16.5646,26.5344,-5.34688
1653427,12,115.0,34.6875,-11.9827,3.99719,2.23334,-1.11774,0.388353,0.346621,56.8776,-13.2268,-45.537,38.3125,1.87137,14.3067,2.89505,-0.0343476,-0.288502,0.0130087,19.0432,-67.4636,2.62198,34.3125,19.5808,-29.8887,27.7301,-0.738931,-0.236719,-1.97387,-52.6428,13.4017,-4.60757
776148,7,160.0,28.8125,4.49408,6.73862,0.815937,1.20312,-2.47734,-0.6339,35.1337,-23.5347,-19.6813,32.0625,2.10319,6.38935,-4.00607,-0.675477,-2.66079,2.22249,17.955,-23.3584,30.5997,31.5625,14.3622,-4.09418,-2.66052,0.785593,-5.2445,6.83736,-32.5312,-15.1755,-5.51848
1960999,10,117.0,33.5625,-4.93575,4.66824,7.07058,0.000974715,-0.0240017,-0.00386661,-1.73716,-9.70247,-11.3193,36.75,1.51807,9.69699,0.386769,0.0148278,0.0543451,-0.0231244,-1.49976,-14.46,-11.0763,35.125,8.97758,-1.88322,-4.27305,0.0617341,-0.0540535,0.0142639,-27.2004,16.3512,28.8091
487684,4,84.0,34.375,-1.56269,5.71492,8.27219,-2.56096,0.709879,0.434245,-29.2729,-67.326,-72.5351,37.75,0.20646,7.77217,-6.44562,0.45009,0.304976,-0.320234,-15.3959,-33.0225,11.6939,35.125,9.77239,-0.20098,-1.65125,0.122768,-0.206881,-0.154797,-39.1741,4.54232,39.9254
1655320,12,112.0,34.75,-7.30538,3.51294,-1.12035,-5.94924,0.303063,0.315025,46.5704,2.35161,-27.1069,38.3125,0.286156,6.80046,0.218982,-0.0827166,-0.130379,-0.332644,12.911,-35.2767,24.3932,34.375,9.44355,0.504673,-4.12873,-0.454959,-0.0585835,-0.363677,-39.0257,-16.4421,15.8988
810635,10,138.0,28.8125,-8.92874,0.202896,0.675411,-2.18586,0.120174,2.56174,39.8433,-6.10684,17.0229,32.3125,1.04932,3.94095,-4.63674,-0.530246,-0.0676009,0.265788,-28.9884,-22.2411,18.7343,30.4375,10.1525,0.707574,-1.6144,-0.969983,0.0288804,0.837088,-22.6322,-7.9967,26.1645
2183400,8,84.0,31.5625,-1.65265,6.8383,6.53512,0.0270046,-0.0255098,-0.0144381,6.96377,-20.3515,-24.0019,34.5625,0.0647632,9.84217,-1.11143,-0.0217436,0.00199269,-0.0314086,6.46466,-25.8572,0.606171,31.3125,9.17888,-1.28012,-3.88883,-0.0327188,-0.0521017,0.0313639,-4.68899,-7.35331,11.4704
10980,5,89.0,31.0,0.421433,5.69476,7.76316,0.00480861,-0.00300687,-0.00313879,-31.9213,17.4912,-38.8394,32.875,1.08082,1.77777,9.54273,-0.034902,0.0168034,-0.000189302,39.5585,10.3395,-55.0768,31.4375,-0.624862,-7.61291,-6.65134,-0.0116943,0.0222822,-0.00648241,-13.7751,45.2889,-5.89339
979330,10,93.0,33.25,-5.70299,0.968276,4.2235,1.50401,0.035225,0.629333,25.8377,8.4193,-17.0316,36.875,-1.45369,5.83057,0.732708,-0.136535,0.416926,0.0591122,12.4479,-20.7335,8.08788,34.3125,11.173,-2.00758,-4.67425,0.897033,1.5217,5.46742,-33.5389,-7.30633,-5.55008
284068,2,123.0,32.0,-4.4807,5.83918,6.88101,0.57161,-0.213671,0.0308871,42.8402,-45.2308,-42.802,36.625,-0.1687,6.86283,-7.45621,-0.12426,-0.562356,0.801847,-4.64483,-40.2658,55.7301,34.0,7.64872,4.81852,-0.970974,-0.301378,-0.605316,0.765155,-48.9312,-47.0095,17.9178
361862,10,183.0,30.25,3.13285,8.14164,3.75434,0.502017,0.115053,-0.492521,-40.2318,-58.269,-8.08261,33.875,0.00183249,9.53562,-1.92471,-0.0279274,-0.111566,0.020228,-36.6925,-59.22,9.37412,33.1875,9.61925,1.88173,-0.855361,0.0306309,-0.0125604,-0.00748551,-56.5456,-30.8359,33.3774
2258489,11,89.0,34.0625,-7.84712,5.19,-0.749244,-0.148987,-0.0315515,-0.989567,27.9543,-17.2451,-12.9085,37.125,-2.29808,5.16849,-8.4573,-0.865517,-0.208461,0.229454,6.99812,-16.4931,29.7446,33.0,9.3241,-1.9369,-2.60981,-0.0487836,0.0190026,-0.124772,5.51658,26.6284,7.07008
1443753,10,90.0,34.9375,-10.7103,3.09475,4.25678,0.552435,0.00504449,-0.630781,32.012,-21.1768,-1.34444,36.75,1.65966,10.7591,-3.95086,-0.257868,-0.279611,0.171714,-14.88,-20.4196,-6.20042,34.125,9.10246,0.339297,-6.87106,1.66387,-1.67367,-2.36544,-39.4188,36.2567,23.4952
2663071,10,166.0,33.6875,-6.40583,-0.77549,-0.438119,-0.225061,-1.39729,-1.45496,28.8474,25.5017,-40.7283,37.875,0.0492498,9.02828,1.02059,0.377102,0.152548,0.155019,-4.75072,-44.1375,-5.00825,33.625,11.6797,0.797408,-4.49351,0.760473,0.653879,1.28864,-52.1996,12.1009,-1.62603
2289438,1,102.0,34.125,-5.49191,3.36688,1.10109,0.775995,0.116163,0.453647,53.8551,28.0086,-48.4056,37.625,0.374886,6.1922,-0.590573,0.0804462,-0.0558345,0.238329,33.6226,-44.5466,18.5268,33.0,-0.0453444,2.59191,-1.38337,1.69338,-1.10897,2.32777,-68.7782,-36.2246,-35.668
2780133,0,124.0,30.6875,0.227344,-6.4071,3.56746,-0.46599,0.109277,0.902632,29.2157,32.6923,-22.1377,33.75,-0.179879,5.25706,0.0606722,0.111757,-0.0351823,-0.457783,3.17047,-40.8359,11.2436,31.8125,7.63277,2.40018,-2.38394,-1.17024,-1.66675,-5.78925,-35.3543,29.4445,8.76686
1565286,10,91.0,35.1875,-9.69483,6.72019,-0.97452,-2.22537,0.958373,-0.0137647,16.0682,-29.3928,-13.2044,37.6875,1.6129,10.8124,-1.66735,-0.0888017,-0.487777,0.0446836,21.933,-23.2166,12.6842,34.3125,3.32957,-4.20005,0.159799,-0.664812,-0.140084,1.58151,-10.2799,-23.7349,-6.25928
2492004,10,101.0,34.25,-9.52906,-1.45774,1.13387,-0.028905,-0.0254006,-0.00513761,37.1264,7.20383,-20.1619,37.5625,0.902616,9.73526,0.18189,0.00240025,-0.0165043,-0.0790998,-0.787258,-32.0302,-6.74147,33.8125,9.54955,-0.0752878,-2.92777,-0.0167203,-0.00404002,0.0208284,-1.15102,17.4756,21.2405
2409280,0,139.0,33.0,1.20502,8.46792,0.375962,0.302876,-0.332996,-0.179525,-9.9106,-40.661,-8.88406,38.375,-0.324818,7.66761,0.088932,0.181186,0.483178,0.266919,-5.61314,-37.6486,-13.3703,32.4375,17.639,0.290188,-2.73131,2.52463,-1.79292,5.65173,-35.3639,13.2997,34.7408
1589167,3,107.0,34.8125,-11.2968,2.27935,1.67209,-5.90787,1.52956,1.86676,64.3018,4.04274,19.4343,37.875,1.47236,11.4439,2.54864,0.437487,0.996535,0.423234,-25.3428,-39.7781,5.96307,33.9375,12.3518,-9.88586,1.40671,1.77096,-0.826051,-1.88141,-60.7594,30.1707,43.5673
118345,10,111.0,33.5,1.88725,7.52735,6.08549,0.347144,-0.676549,-0.261899,-31.3372,-33.594,-37.6608,35.5,-0.419616,9.57406,-2.00991,0.0273032,-0.0471918,0.00719401,-12.1424,-54.9013,-2.62792,34.375,9.76306,-1.57789,-0.407931,-0.00666018,-0.0620906,0.0210982,-31.7551,26.5437,-17.2101
354313,6,173.0,30.1875,6.46678,11.8003,0.0201758,3.79788,-2.07319,-0.978024,68.5343,-12.0019,-9.40822,33.75,1.07407,-3.70125,-4.37912,-1.62108,0.439017,0.310699,-33.4666,-56.0691,19.6013,33.125,11.7632,-10.6302,-4.65327,-2.2022,0.274613,3.82168,-51.6945,-31.4867,36.3015
55053,9,101.0,32.75,-0.0155277,7.86969,4.51634,-0.81448,0.0789084,0.333907,31.4897,-41.7915,-47.4955,34.3125,-1.2066,9.46671,-1.55917,0.0186757,0.0723238,-0.0203108,41.5779,-54.9599,-9.04499,33.0625,9.91616,0.131353,-0.609916,0.0649782,-0.0539985,-0.0416565,-87.1239,34.1781,-4.54554
1565645,10,91.0,35.1875,3.04943,4.380525,1.033178,-0.0832944499999999,-0.5211825,-3.145315,2.216506,-51.23545,-7.860255,37.6875,0.675013,7.55363,0.417184,0.133278,1.2359,-0.0172541,-2.47939,-39.8763,32.7725,34.3125,11.8654,-1.15934,-6.79484,0.756888,2.03568,5.49235,-31.693,-40.4805,21.4839
1302237,12,113.0,31.75,-5.82087,3.30633,2.5204,2.45291,1.12089,-1.58435,37.7514,-24.4799,-28.5011,35.75,-0.670193,6.35107,0.125675,0.20351,-0.246535,0.131367,-1.98701,-39.2012,-13.1953,33.625,10.57,0.990831,-4.08161,2.26606,-0.380697,5.40671,-43.2934,2.59172,24.0879
2564237,4,91.0,34.75,-7.20559,2.50687,5.23496,0.341486,0.0749564,-0.239384,71.7208,-36.9654,-28.3629,38.0,3.64974,9.22063,-2.20609,-0.122131,-0.192437,-0.000654898,-30.9736,-33.5171,13.6436,34.75,9.64262,-0.385293,-2.23028,-0.015325,0.0571232,0.115146,-49.2095,2.90241,-14.2279
2497600,8,66.0,34.25,-2.01424,-6.78018,6.53716,-0.0287774,0.0107805,0.00271683,6.11953,17.1677,-28.6896,37.5625,0.578929,9.70308,0.834387,0.0249339,0.000906286,-0.0160327,5.64119,-24.5309,-5.32927,33.875,9.20404,2.69461,-2.44684,-0.00366415,-0.0216093,0.017547,-19.0519,15.4198,25.4348
818608,10,122.54545454545456,29.0,-0.00437605,-0.0513924,9.73902,-0.0127317,0.0148585,-0.0111471,-21.932,14.1806,-63.4083,32.4375,0.573029,10.0518,-3.27127,-0.103601,0.377107,-0.160658,-1.69452,-27.8352,5.41214,30.5625,-3.18664,-2.25504,8.76356,0.0262242,-0.0143715,-0.0374481,22.8461,12.7298,-52.9572
2088633,2,136.0,29.25,-8.13756,3.23815,9.79853,-1.20749,-0.0689288,0.97911,39.2885,-27.5406,-29.0105,35.0,-0.0681168,4.96906,-9.03579,-0.142224,1.18444,-0.984471,-4.98116,-26.5074,39.3064,34.1875,11.7661,3.84162,-0.729739,0.658009,-0.202888,0.16332,-42.7321,-3.99179,27.6434
1538603,11,92.0,35.4375,-6.05975,0.749261,4.87318,-0.739731,1.52002,1.55375,33.5847,10.1047,-47.2061,37.6875,-4.28677,6.23558,-7.52877,0.22913,0.263768,-0.122977,18.8589,-41.933,13.4741,34.375,9.91517,-0.0584898,-0.608748,0.666146,0.119662,-0.594589,-40.1292,36.7564,6.33043
1913038,11,81.0,34.125,-6.55406,4.69957,0.695812,0.642893,-0.125027,-0.464172,27.7368,10.2095,13.0406,36.625,1.50053,9.1023,-4.0258,-0.222434,-0.77979,-0.203663,-13.8568,-10.438,31.6802,35.125,9.62979,4.96948,-2.37941,-2.25359,-0.842931,-1.106,-10.5428,-34.497,7.08449
2337041,10,112.0,33.125,-2.13582,8.30281,8.63975,-0.496984,-0.18403,0.360483,-6.73402,-41.208,-16.3674,37.6875,-0.653073,9.36542,0.425955,0.291339,-0.0686507,0.0365162,-11.779,-39.3809,10.7083,32.0,9.46652,-2.27796,-2.79918,0.978872,-0.384314,0.012005,-42.5182,-33.8809,24.4166
1795866,5,71.0,33.3125,5.04079,-0.521535,8.27668,0.00664233,-0.0081126,-0.00745765,14.5637,24.6513,-40.1692,35.375,0.49894,-1.19558,9.46441,-0.015311,-0.0511976,-0.000519992,37.5649,16.7442,-27.4792,34.5,-0.126244,-9.54222,-3.23837,0.038206,-0.0160097,-0.00119601,-17.4669,26.9656,-5.35055
1102549,5,58.0,32.875,5.60521,0.458159,8.01242,-0.0130458,-0.00549245,-0.0209998,17.2491,6.6316,-49.6453,34.875,-0.363808,1.89603,9.63234,0.0295529,-0.0169766,-0.0221422,40.9616,5.65724,-27.9566,33.625,2.46749,-9.51791,1.11011,0.00551999,0.00061826,0.000449377,-21.1286,15.4115,-12.4416
308577,10,130.0,31.0625,-7.70327,6.66523,3.09667,0.359855,-0.547569,-2.9624,65.4807,-39.1891,-22.3964,34.6875,0.950859,8.64876,-4.53766,0.326307,-0.912884,-0.0743733,0.932247,-58.2482,46.7197,33.375,9.81939,0.366385,-1.42275,-0.265231,0.37608,0.293146,-73.8277,-40.0796,-14.4822
1055079,12,119.0,29.875,-13.8219,3.76784,0.43614,0.480124,-2.24856,3.41001,15.7927,-25.6624,-37.7679,36.9375,0.56436875,9.0268,1.0492849999999998,0.02888045,-0.563653,-0.13372,1.752135,-33.3548,-14.5232,34.5625,11.9987,0.312094,-1.09135,-0.564985,-0.517373,-1.17491,-38.8279,16.9176,20.7451
1409843,10,92.0,34.4375,0.804899,9.67718,-0.51932,0.0410756,-0.0424374,-0.000595626,-58.5955,-28.73,27.8872,36.0625,1.20717,5.53356,-8.47243,-0.00100545,0.004563,0.000366217,-16.3296,-31.4865,21.6302,33.875,9.31213,-2.54182,-2.9149,0.0581067,0.0176909,0.0235923,-34.655,27.3277,44.939
1547950,11,95.0,35.3125,-9.65096,6.3146,0.374563,0.160019,-0.697336,-1.39892,35.7925,-12.9332,8.70277,37.6875,-4.41025,3.92963,-8.91747,-0.520919,-0.242358,0.375649,9.44115,0.0446753,37.987,34.3125,9.83788,0.312271,0.545846,0.199988,-0.28057,-0.0331853,-1.6304,-24.8499,23.8408
2162122,5,60.0,30.8125,0.485186,4.64056,8.72985,-0.0142785,0.00976177,-0.013003,-5.25234,15.9097,-33.9082,33.5,0.620062,2.23001,9.37803,-0.017267,0.0030216,-0.00522291,35.0132,3.81807,-32.4997,30.625,-0.953539,-8.80267,-4.83362,0.00749124,-0.0441312,0.00161038,-12.5613,29.4196,-7.03813
1914887,11,90.0,34.125,-15.4455,0.570142,-2.15605,1.74374,0.0178212,0.813227,18.9345,-9.3207,-17.1377,36.6875,3.65534,10.756,-3.45005,0.0219219,0.914569,0.177891,11.9581,-21.0365,6.53921,35.1875,8.33278,-1.2029,-3.39632,-0.0839904,-0.264641,-0.876663,8.32778,5.06377,-10.7659
1655534,12,113.0,34.75,-14.7019,3.29903,2.3874,-3.34687,0.239212,2.46686,33.7476,8.12966,-18.8483,38.3125,0.609064,10.859,-0.833825,-0.110773,0.42998,-0.0743786,6.12208,-20.6945,8.75273,34.375,10.2234,-0.0415872,-2.92107,0.0732035,-0.407088,-0.619995,-35.602,-9.92107,14.9104
2396278,0,120.0,33.0625,3.09753,3.94728,1.42023,-0.586776,0.235968,1.05388,-20.4969,-35.1363,-15.064,38.375,-0.901177,9.52101,1.04049,-0.092381,-0.494204,0.108047,-4.70344,-38.9726,-12.6515,32.4375,9.08892,0.473978,-4.74961,-0.556059,0.425202,-1.78679,-36.9161,9.00402,36.1587
620846,1,121.0,32.375,-3.48979,5.05306,-7.95763,0.111475,0.268423,0.366324,12.9641,-50.8609,5.15972,37.0,2.43312,11.8041,-4.94699,-0.283622,0.244755,-0.542483,26.0674,-32.5174,37.207,34.9375,14.4821,-2.44532,-0.0840266,0.0869945,0.968567,-2.28179,-4.81762,-28.406,3.39714
145455,10,116.0,33.75,-3.80828,7.5741,6.30791,-0.569178,0.198759,-0.0818325,20.4015,-52.6868,-13.346,35.8125,1.83104,9.41694,-1.89119,0.167947,0.325814,-0.0133714,-22.681,-50.3249,-12.4653,34.75,9.71666,-0.119344,-2.30835,-0.125281,-0.200794,0.310161,-54.3703,-21.4988,55.8632
2302604,10,83.0,33.875,-9.23548,3.05432,1.04607,0.00141742,0.0319057,0.0514222,40.4766,-6.23808,2.35354,37.6875,1.96848,9.65636,0.162736,0.0101556,0.0625038,-0.021844,-4.85397,-25.5839,15.1903,32.75,9.14019,-0.252802,-4.12714,0.0217187,-0.0266348,0.0128402,-25.2824,-7.94851,28.844
102564,4,100.0,33.3125,-3.90432,-2.68408,8.91974,-1.81933,0.625621,1.08211,6.89202,13.4286,-101.127,35.25,-0.311398,8.6893,-4.71554,-0.048966,0.148223,-0.184615,-24.0741,-63.2266,10.4182,34.0625,9.31307,-1.51539,-3.07561,0.0627586,0.0355111,-0.0376719,-47.5981,-7.86365,57.9337
1917945,11,104.0,34.125,-7.8613,-4.4588,10.6369,-0.440278,-0.27402,-0.593427,25.3203,18.7519,-24.0137,36.6875,-3.92399,11.8521,-0.919177,0.0118453,-0.125037,0.00402825,14.6456,-23.8395,2.34369,35.125,9.94132,-0.310931,-2.26626,0.247274,0.0132369,0.0839165,-49.5106,12.0981,-0.76557
1113765,8,101.0,32.875,-2.19621,5.78809,7.41573,0.0321718,-0.00983709,0.00451847,9.20165,-20.3469,-24.1376,35.0,0.60076,9.74566,1.57034,0.0644412,0.0370296,-0.0492175,4.19648,-23.5757,-4.49872,33.75,9.47393,2.29969,-0.782266,0.0272128,-0.0421546,0.0229498,-5.63022,-5.86044,21.5354
1148077,9,100.0,33.1875,-8.76624,3.77434,1.35857,0.1678,0.126211,0.0591464,30.6856,-22.225,-4.48497,35.1875,1.87776,9.51154,0.974703,0.16306,0.263075,0.0388833,-3.98688,-26.2307,-13.2829,33.9375,9.40279,0.913486,-3.01259,0.0523432,0.0265111,-0.00469874,-1.31615,-0.127358,30.3375
2388812,0,79.0,33.125,1.81128,8.30361,3.734,-0.00699764,-0.222265,-0.00117948,5.95197,-32.5782,-16.8391,38.3125,1.28135,9.53661,-1.16584,0.0327611,0.00532562,0.00576607,-3.71919,-34.6473,9.4685,32.3125,9.34963,-0.412607,-3.31362,0.0168929,-0.0754388,0.0643606,-49.6228,18.3228,12.559
2102180,10,129.0,28.375,-9.40542,2.15161,1.77783,-0.878862,0.914819,-0.568298,39.0549,10.0809,-17.6898,34.0,0.672155,8.485,-1.05729,0.107778,0.354733,0.248789,19.351,-24.2835,14.0823,33.9375,6.47233,-0.607168,-0.524881,-0.708851,0.219003,1.50835,-34.5982,-3.57075,2.42537
1263809,3,160.0,32.5,-2.00259,-0.385386,8.82501,1.38536,-0.697388,-3.4059,15.3443,8.10003,-47.157,35.625,1.17838,11.3922,0.336384,-0.212876,-0.66551,0.268439,10.5703,-34.6425,-5.94259,33.5625,12.7815,0.356732,-2.51141,-0.796195,-0.399854,-2.27725,-47.8427,-21.2433,28.6382
1247475,3,115.0,32.6875,-2.90059,2.66342,9.53253,0.513875,-0.378149,-1.48259,41.8199,-28.0613,-48.5661,35.5625,-3.22829,7.71276,-0.196142,0.142894,-2.74625,0.0184211,-13.0677,-56.0907,2.898,33.5,8.69607,0.291646,-5.36994,-0.733285,0.230648,0.322059,-32.1883,-12.9415,52.5114
1558224,11,88.0,35.1875,-8.93544,2.08627,3.36307,-0.335641,1.1664,-1.30679,44.6159,20.0856,-15.3996,37.6875,0.19376,8.30488,-5.63444,0.269968,-0.0434583,-0.302085,11.6255,-17.9636,39.3735,34.3125,6.03581,3.94921,-4.87967,0.167475,-0.254589,0.501059,10.6006,-32.2963,19.4957
1189246,10,107.0,33.625,-9.82492,1.86065,2.81169,-0.201516,-0.323986,-0.0471124,39.3326,-4.19165,2.08099,35.75,0.273011,9.46051,-1.76467,-0.185201,-0.294354,-0.480172,-11.948,-29.9617,12.2047,34.375,10.0324,0.482401,-1.84577,0.0327052,0.33161,-0.45799,-15.5791,-26.0083,6.34777
1879542,4,91.0,33.9375,-8.43078,-7.28695,7.86679,-1.55436,0.920784,0.0430858,18.4794,22.4439,-59.0612,36.3125,-0.410761,10.3287,-1.77988,0.0171083,0.817134,-0.104949,1.86619,-39.215,-12.6044,35.0,9.63829,-0.16656,-1.11258,0.159957,-0.0968732,-0.0118745,-45.5816,18.8249,32.8547
719931,0,124.0,30.25,-13.2275,4.78317,-0.058717,0.831128,-0.530532,-2.55962,45.1421,-15.1811,-12.0678,35.25,-0.0825375,14.3709,-5.23324,0.308923,0.0401912,0.0119727,-0.582862,-38.343,13.9953,34.0625,14.4284,12.4066,-0.832769,1.52828,0.248597,-3.73655,-28.5352,29.6016,26.9852
2411754,0,133.0,33.0,1.88872,7.81971,0.619315,0.214861,0.0255352,-0.642049,27.257,-38.9351,-27.9985,38.375,2.01892,7.40118,0.790515,-0.00762972,0.473285,0.0102258,12.6792,-39.9056,19.3417,32.5,16.2523,0.576389,-4.17512,2.64887,-1.98917,5.71954,-44.8689,-12.0673,3.53375
1288549,10,121.0,32.125,-0.567481,3.09611,4.83207,0.287471,-0.36968,-0.135788,37.5766,-26.9356,-3.55174,35.625,0.515227,3.48832,0.543666,-0.109549,-0.0182743,-0.0142562,-16.9916,-28.7523,20.2,33.5625,16.5067,18.7702,-5.25016,1.17969,-0.10371,3.21181,-28.8913,-19.034,50.5445
2349522,12,100.0,32.875,-13.1784,2.96783,0.640915,1.26418,-0.0515443,-1.64107,25.2197,-39.4423,-21.2984,37.625,0.0318839,13.1174,-1.23883,-1.01614,-0.0299213,-0.121827,-6.34911,-37.7482,-15.49,31.875,19.8973,-4.84591,-7.84728,-1.76606,1.59035,-3.02131,-37.5385,-13.5162,29.091
1214412,10,120.0909090909091,33.625,-7.62661,6.99721,6.32964,-3.82758,-2.03784,1.39606,4.08345,-37.0849,-38.7238,36.0,-1.58886,9.75994,-2.92228,-0.703966,-0.094364,0.618857,7.17787,-42.1283,-4.09063,34.4375,9.46279,-0.0333115,-3.3534,-0.0415792,-0.162273,-0.0374381,-49.1029,23.3833,34.6808
1089661,5,73.0,32.625,4.93302,0.276064,8.27238,-0.000230536,0.0150372,-0.0126493,19.4807,7.25678,-50.0474,34.5625,-0.332804,2.23298,9.36076,-0.00315866,-0.0117108,-0.0050466,40.0992,4.78793,-29.5087,33.25,1.92461,-9.55778,1.76081,0.0469903,0.0446808,0.00412269,-21.0301,16.0461,-13.8603
2450683,10,94.0,32.5,-9.27333,2.34479,2.27949,-0.21522,-0.0851847,0.0381282,42.7334,-4.75866,-17.3448,36.9375,0.272692,9.92077,-0.527102,-0.00452257,0.0162552,-0.00897426,6.4716,-41.4771,14.6543,32.0,9.28575,-1.48007,-2.72881,-0.03637,0.0238961,-0.0136219,-23.8852,10.5824,5.99244
750955,2,119.0,29.375,-7.60027,0.868503,8.35205,0.616867,-0.108286,-0.687076,27.3409,-18.9832,-8.43305,34.0625,-1.45413,1.01896,-9.16422,-0.228099,-0.180976,0.198415,-12.2252,13.5002,20.3853,32.875,14.4726,0.191939,-2.22292,-1.53251,0.0161977,0.0304204,-28.6034,-10.0774,32.6276
1872989,4,87.0,33.875,-0.7366,10.1566,5.03664,-0.178847,0.105311,-0.561056,-8.36194,-39.5188,-32.5159,36.25,0.343103,9.88158,-0.719304,0.0743681,-0.0502171,-0.033995,-0.0267288,-35.1408,-18.7039,34.9375,9.65653,-0.465406,-1.72797,-0.0213569,0.037527,0.0172673,-39.5153,14.0418,41.5333
139703,11,136.0,33.6875,-11.537,-3.63893,5.76812,0.805088,0.428066,-0.345598,27.3707,-3.00036,-32.9113,35.75,1.16002,8.03277,-6.42919,-0.846676,-1.04827,0.934213,-0.276075,-31.6825,17.6863,34.6875,6.56675,-0.243781,1.40331,-2.94016,-3.11992,3.82493,-32.0219,-15.797,15.2656
2367535,12,103.0,32.9375,-12.4755,2.58956,1.38398,0.622942,0.630297,-2.33518,27.6719,-36.3474,-22.372,37.875,-2.71165,11.9508,-2.44637,-0.397326,0.355508,-0.417018,-6.62183,-38.1263,-14.2207,32.1875,18.7425,-2.75936,-6.75297,-2.243,1.18488,-2.87906,-36.4893,-15.3739,28.104
206440,10,149.0,33.5625,-9.88155,3.41876,3.03651,0.151249,0.0372299,-1.41209,5.41944,-65.8755,-28.7085,37.0,0.917848,14.7637,-2.35104,0.0321932,-0.146769,-0.115138,-21.6355,-65.8346,-18.7219,34.8125,15.1929,-0.803925,-1.70769,-0.327649,1.37631,-2.59888,-60.1042,4.14272,42.5679
2519384,9,79.0,34.4375,-9.27625,1.35938,2.39824,0.0183164,0.0472719,-0.00802406,39.5607,-13.7773,-24.5014,37.5625,-0.918879,9.74279,0.419913,-0.0038151,-0.000672609,-0.0211416,-2.00334,-36.378,0.747991,34.125,6.63935,-7.20838,-1.29258,-0.00280927,0.00515124,0.015437,-14.9967,29.3485,14.9374
1881156,4,90.0,33.9375,-5.05831,5.50977,7.72019,-0.102519,0.492691,-0.0629067,17.3354,-39.6674,-58.9447,36.3125,2.49989,9.82484,-2.49993,-0.0597485,0.877089,-0.0122982,-14.5173,-42.0974,-8.04888,35.0,9.72241,-0.919576,-1.95602,0.140977,-0.0550908,0.0294297,-39.2623,25.095,39.3939
2252434,10,79.0,34.0,-9.15114,2.45974,2.51186,-0.0197973,-0.0596922,0.0189423,32.9446,-26.6858,0.130628,37.0,-0.234435,9.84441,-0.923251,-0.0158099,-0.0152174,-0.0311941,-14.2387,-27.1563,0.187487,32.9375,9.53033,-1.86761,-1.9521,0.0515026,-0.0255331,-0.0107032,-20.9917,-25.5187,37.1057
2781095,0,124.0,30.75,-3.43388,-15.1836,3.27282,0.149666,-0.114639,-1.27914,27.7942,21.978,-13.0148,33.75,-0.692219,13.8635,-2.60961,0.47666,-0.3335,-0.188224,8.81082,-23.5139,20.0678,31.8125,9.83317,-2.04995,-3.10555,1.1273,-0.226102,1.2333,-33.7765,20.5125,18.9947
2677332,10,125.0,33.4375,-11.7489,-0.130882,3.28992,0.0799627,1.77136,2.58113,42.7142,22.9071,-30.3733,37.6875,1.22808,7.84867,-0.232012,-0.0410449,-1.27465,-0.375256,5.0691,-35.187,-30.9355,33.4375,18.1626,-5.22807,-10.8727,-3.89949,-1.45164,-5.11618,-29.698,-13.7646,33.7993
1759273,7,168.0,33.8125,-11.3717,2.30819,0.593228,-2.1204,2.60985,4.44285,-13.1874,-14.575,-45.9118,36.375,-1.91239,6.91424,-0.7118,-0.737218,1.77354,-0.50142,24.7674,-26.1201,-23.6587,34.0625,17.6895,-4.40179,-0.0775819,-2.12926,0.229239,-0.402408,-42.2899,-2.02931,2.11286
2159708,5,60.0,30.6875,0.442851,4.56396,8.61402,-0.0293092,0.0442755,0.00462676,-5.26507,16.2833,-32.9918,33.375,0.739826,2.11798,9.57417,-0.0126931,0.0201072,0.000746917,34.8871,3.95199,-32.7834,30.5,-1.02879,-8.87813,-4.83392,0.00948361,0.0139672,0.0431229,-12.1703,28.8843,-7.3198
1780862,10,87.0,32.875,4.83789,5.79133,5.48126,0.156187,-0.0263589,0.0833154,-30.3537,-30.7647,-17.4327,34.8125,0.377686,9.84303,-0.834715,-0.00505716,-0.0168875,0.00565274,-7.9339,-39.1122,-11.8271,33.9375,9.2959,-0.369583,-3.89328,-0.012038,-0.016506,0.0112709,-34.8108,26.81,41.3932
1648760,12,113.0,34.625,-12.1266,4.58782,4.49994,1.42488,0.0850923,0.938245,39.7259,-28.5508,-20.2128,38.25,-1.07101,12.0126,-3.65592,-0.463775,-0.0761488,-0.232843,-2.60289,-38.273,-15.7429,34.1875,25.8584,-10.7795,2.86281,-4.35889,-0.309788,-3.20508,-41.5595,-4.17356,29.4915
491513,4,89.0,34.375,-2.54622,2.35162,8.92309,-0.826059,0.53343,1.07623,-2.00301,7.41415,-75.6295,37.8125,-0.174526,8.99509,-3.97836,-0.0443391,0.00274328,0.0387532,-13.2017,-46.1326,7.66439,35.1875,9.50777,-0.91036,-2.92301,-0.0306928,-0.0387744,-0.00474178,-36.0633,8.8989,44.2787
312383,10,126.0,31.0,1.85884,9.38453,1.61426,-0.0464335,0.0386415,-0.00664153,-6.73506,-78.1237,-3.00953,34.375,-0.52098,9.72788,-1.58632,0.037998,0.00628658,-0.034344,-3.47144,-70.5116,23.1014,33.375,9.56235,-2.06709,-0.792849,0.0321459,0.00846073,-0.0120108,-97.668,8.53661,-23.1758
1047161,12,120.0,30.625,-9.11416,2.91372,2.39542,-0.71358,2.05784,-6.40767,39.9074,-7.09987,-24.5352,37.0625,0.950483,5.92788,-0.424402,-0.120949,-0.686965,0.282401,22.5028,-24.5137,18.1642,34.625,4.41498,-3.5605,0.0511921,0.372391,0.68977,3.91506,-17.6589,-30.1948,6.08244
2373776,12,105.0,33.0,-10.5955,2.86578,-0.0128246,-1.7623,-0.60359,2.30994,49.9202,7.63776,-20.1904,38.0,0.568105,8.48769,-0.710697,0.460031,-0.0401992,-0.249818,11.6165,-38.0612,19.6059,32.375,8.83536,1.88015,-4.72235,-0.715136,0.235157,-0.5034,-44.0199,-11.0517,13.0383
571821,3,100.0,33.875,4.01648,3.39232,-4.64514,-7.19669,-0.687034,-3.78254,-16.5512,-46.5647,-9.6164,37.875,-0.200016,8.71715,-6.10757,-0.315619,-0.872566,0.209006,15.3707,-38.8559,24.0429,35.125,15.2759,0.562149,-1.67672,-1.26699,0.513793,-1.73663,-57.4647,-6.14226,3.69387
2111064,7,122.0,28.3125,11.1644,1.84446,2.47186,2.6715,-3.4413,-0.683442,19.5773,-44.2197,-7.47865,33.5,-0.0836437,3.59685,-0.396839,-1.13962,-1.09035,1.05814,-6.54439,-39.8106,-9.55743,33.875,14.1973,3.72922,1.88139,2.18336,-2.78787,7.95667,-45.412,5.78473,23.2258
1251143,3,119.0,32.6875,-14.8687,0.428973,7.97525,-0.362977,0.261768,0.247942,23.9971,11.3713,-32.1027,35.5625,-1.24813,15.9648,1.59407,-0.0817258,0.0603734,-0.0438602,27.1269,-26.4874,-2.48959,33.5,-0.153488,-11.1908,-1.26035,-1.68949,-0.58349,2.4451,-10.7175,-8.64746,-5.42733
1139212,9,109.0,33.0625,-8.23145,5.98662,-1.10407,0.766352,-0.288772,0.033513,24.7268,-30.2231,-7.04904,35.125,0.786857,9.78168,1.41871,-0.0992051,0.014413,0.0258252,7.79579,-30.0181,-13.7434,33.875,9.32235,0.687434,-3.16637,0.0768619,-0.0313614,-0.0146298,-5.54344,-0.308226,28.4791
2026399,12,94.0,31.9375,-9.41156,0.908838,-1.41252,-1.4599,1.17831,-1.48821,39.7783,-17.5153,-29.5973,36.5625,-1.27722,6.83406,-1.12596,-0.271178,0.654845,-0.651618,12.9703,-40.8015,2.56934,34.9375,12.8838,-9.80004,-4.87847,-1.35703,1.31569,-2.87865,-25.6884,-26.4154,2.90871
2510359,8,75.0,34.375,-2.22431,-9.38009,-0.0770436,0.117792,0.0146533,-0.0111202,7.99212,24.5249,-11.9403,37.625,-0.153753,9.51526,0.550677,0.0276163,0.0304947,-0.0534882,7.69219,-24.8654,-4.46708,34.0,9.16371,2.77175,-2.5635,-0.00744734,-0.0300074,-0.0179899,-18.9398,15.9279,25.0091
1196760,11,109.0,33.6875,-6.045,2.78829,3.78888,-0.817461,-0.606217,0.208137,29.5941,-30.7424,-23.591,35.9375,0.0314358,-0.190071,-9.05594,-0.289919,-0.0946249,-0.164346,-5.17174,-11.5378,36.964,34.4375,9.28586,-1.67024,-2.68904,0.0098176,-0.0710513,-0.0711079,-29.3125,11.8799,48.5215
1895917,4,82.0,34.0625,-6.15632,3.14031,4.86367,-0.0785042,0.330356,-0.771407,12.3887,-11.9702,-47.423,36.5,-0.720675,9.88569,-0.622426,0.216825,0.125215,0.0141093,3.94046,-35.6844,-8.94389,35.0625,9.84487,-0.657077,-1.64767,-0.0825324,-0.0178485,0.0992995,-33.386,14.1241,42.1221
1428352,5,73.0,34.875,0.751156,7.38401,6.03047,-0.000396312,0.0209867,-0.00911699,-9.62743,7.82967,-32.538,36.5625,-0.107698,1.74226,9.28899,0.00972114,0.00834773,0.014599,39.1705,5.98232,-28.958,34.125,-0.494614,-9.03654,-4.44156,-0.0206195,0.00527381,0.0413866,-13.5368,27.7975,-6.04685
1474703,9,91.0,35.0625,-8.89277,2.91062,2.2448,0.408559,0.0194987,-0.861147,36.9187,-1.46559,-10.9226,37.0,1.11116,9.46656,-0.471714,-0.145887,-0.0456296,-0.00482625,-8.31722,-31.5142,12.0978,34.25,9.58389,-0.45489,-2.96365,-0.144595,-0.191311,0.0140091,-9.28377,-14.2102,9.7602
1644779,12,111.0,34.5625,-8.91248,3.6448,3.70455,2.0035,0.493469,-1.48764,52.7274,14.0621,-24.5657,38.1875,0.151599,6.65447,0.836554,0.0580637,0.249315,0.229805,10.2839,-51.553,19.2502,34.125,15.5244,-1.1741,-3.1298,1.35041,1.32699,6.76813,-44.8146,-16.2939,11.9069
1505035,4,88.0,35.3125,-2.47875,1.4584,6.69485,0.124046,-0.388042,0.418828,8.28523,11.0776,-54.9034,37.3125,0.136281,8.91146,-5.05664,-0.351491,-0.00146115,0.189139,10.8595,-38.5322,3.5288,34.4375,9.54532,1.8546,-2.12941,0.19624,-0.31418,-0.0705341,-48.7879,27.0697,24.0402
980805,10,96.0,33.25,-12.8613,-2.33291,2.16456,-0.7077,0.790768,-0.296827,44.9353,-12.4875,-0.579265,36.9375,3.49854,9.99151,0.344249,-0.156616,1.29517,-0.0875577,-2.01743,-33.2756,14.961,34.25,12.3848,-1.85055,-1.57563,-0.120758,-0.111307,-1.43777,-43.8508,-36.7882,40.8844
739771,2,119.0,29.875,-8.30207,6.21811,7.7077,0.136741,-0.0700252,0.0891722,44.4503,-4.32386,-32.4268,34.75,-1.58351,1.96544,-8.47267,0.206265,-0.0603185,0.507995,13.2377,5.30992,40.9859,33.6875,6.70503,3.48519,0.301079,-0.405839,-0.477086,0.921267,-19.7619,-26.8569,1.1841
2526101,9,79.0,34.5,-9.52273,-0.878292,2.28663,0.0353956,-0.0246381,-0.0184784,45.8413,-3.313,-19.8533,37.5625,-0.190127,9.74156,0.588003,0.0329138,-0.010211,-0.0305715,-3.49368,-36.715,5.53368,34.25,6.60173,-7.24611,-1.29273,-0.0322299,0.0161273,0.0304295,-19.9269,28.5723,17.6157
1346217,0,134.0,29.5625,-7.7917,8.05531,5.7078,-0.682889,-0.268752,0.43888,38.3479,-29.592,-17.1853,34.875,0.755958,12.2119,-1.14533,-0.108486,0.246777,-0.404693,-0.985284,-41.1764,-9.652,33.0625,13.2742,23.9603,-10.6795,2.96856,-0.593552,3.28124,-27.292,37.1692,14.1759
1436166,5,70.0,34.875,0.713633,7.42224,6.02977,0.0381595,-0.0124035,-0.00133536,-9.11667,7.30549,-33.3233,36.6875,0.00291526,1.62816,9.1752,0.0323481,-0.021446,-0.00627493,38.6447,6.38833,-28.6819,34.125,-0.380025,-9.22805,-4.32343,-0.00921577,-0.00845313,0.0137171,-14.8118,27.6027,-6.33478
1638848,12,112.0,34.4375,-11.4959,3.67097,4.35853,-0.122452,-0.0162822,-3.78798,44.7633,0.336035,-30.6342,38.125,-1.72941,11.523,-3.97602,0.0477614,-0.360574,-0.156078,17.3284,-36.7201,15.5489,34.0,14.2277,-11.476,-9.90952,0.975822,-0.446579,-3.79651,-19.7707,-38.1541,7.90727
2513219,8,71.0,34.375,-1.97029,-9.67797,0.774489,-0.0150965,0.0442261,-0.0361335,8.39228,23.8815,-14.1681,37.625,0.187042,9.96525,0.439225,0.0887486,-0.0513161,-0.0209412,6.52562,-25.7265,-3.20127,34.0,9.18863,2.69911,-2.98728,0.00935533,0.0128067,0.0123899,-18.3342,16.7951,23.7338
1043022,12,115.0,30.9375,-12.2682,0.575687,1.23993,0.67419,-3.64876,2.85763,31.0422,-20.5573,-29.6708,37.0,0.360832,4.05282,0.422871,0.115637,0.0803747,-0.0747328,-4.13264,-32.7375,-11.6698,34.625,9.45701,-0.726788,-2.11429,-0.374432,-0.188495,-0.528533,-36.9755,20.6047,20.6455
641048,10,144.0,32.0625,-11.993,1.90185,1.27807,-2.12882,0.448215,5.56285,29.8324,-27.191,-16.0724,36.5625,0.705153,4.67426,-2.16721,-0.124812,-0.155223,0.435647,1.32339,-33.7896,10.1079,34.6875,9.45375,-1.13344,-3.46244,-0.70563,0.267104,-0.805567,-31.2551,7.09963,25.5296
472482,4,84.0,34.25,-2.85255,6.2819,6.9039,-0.21137,0.38724,1.08289,-8.60848,-16.4123,-37.7359,37.625,-2.68022,8.69539,-4.95208,-0.0782215,-0.173875,-0.0189313,9.45028,-34.0896,1.03742,35.0625,9.75223,-1.11841,-0.873968,0.0786761,0.0275735,-0.0424309,-38.7602,12.9585,36.4222
328397,7,171.0,30.5,-2.54229,22.045,0.620415,2.56789,-1.62513,-0.656248,39.945,-19.0562,8.08674,33.75,-3.57771,21.2708,-5.55131,-0.591266,-1.39079,0.741091,-6.90844,-30.3983,35.8515,33.0625,0.185705,-0.165958,-3.25477,1.81635,-0.989347,3.71799,23.1559,-14.2753,-5.22166
780207,10,113.0,27.9375,-5.12006,2.25438,0.0712557,2.25237,-1.3566,-0.663398,33.0213,-21.9625,-30.8659,31.5,-4.33486,3.90908,-6.36046,-0.704073,-0.523198,1.24356,20.2288,-31.5142,22.1653,29.875,10.3254,-2.02735,-1.59565,-0.982017,0.576591,-0.26064,-36.3288,21.81,19.5391
970947,11,95.0,33.1875,-4.26004,9.23343,0.56093,-1.18957,-0.725076,-0.250111,30.1047,-23.8566,-31.2001,36.8125,-3.10073,7.79327,-4.91805,0.252159,-0.610957,-0.159116,31.4006,-28.6561,-1.19633,34.1875,9.35898,0.535323,-3.16505,0.0625061,-0.259905,-0.0774667,-8.38818,17.5946,-11.8029
1846810,9,80.0,33.5625,-7.40554,4.36131,4.53294,-0.045596,0.0370059,-0.0058478,22.3127,-32.3315,-12.1494,35.9375,1.53913,9.73064,-0.193773,0.0192582,0.0199129,-0.0574598,-12.0958,-24.9147,0.894692,34.75,9.21157,-0.708578,-4.16217,-0.0344157,0.00369913,0.00273638,0.298862,-0.315281,37.5769
1237190,10,145.0,32.5625,-4.33445,6.51484,-6.4742,-0.0933508,-0.140605,0.312842,9.03813,-48.7218,26.8216,35.375,1.02843,9.89678,1.84865,0.0192227,-0.248529,0.0954612,-11.3986,-46.5998,-5.60454,33.375,9.38292,0.272839,-3.58766,-0.0104998,0.0632068,-0.0478456,-61.1473,13.5891,45.9964
619396,1,115.0,32.375,-5.82383,3.08691,-0.788817,-1.98381,0.286924,1.18602,33.6063,-4.18876,6.00501,37.0,-0.948995,4.11146,-2.66,-0.128536,1.00414,-0.397803,-10.0708,-15.2938,20.8694,34.9375,7.82965,0.0492036,-2.90759,-0.772165,0.0773901,0.653733,-1.1447,-5.99449,26.0101
968177,11,98.0,33.1875,-10.7855,4.56146,-1.48391,0.492894,-0.112553,-2.80122,36.3019,-37.7143,-30.8417,36.75,-4.75112,4.46678,-7.60888,0.0566341,-0.399806,0.0126312,6.52366,-44.6714,20.2235,34.125,9.37594,0.813205,-0.00225445,-0.435101,0.106016,-0.0493493,-40.3419,14.4012,23.2062
1387450,2,132.0,28.25,-2.73883,2.34239,7.72713,1.29765,-0.0214958,1.60496,54.406,-1.89939,-6.09983,33.6875,-0.849846,6.69805,-9.86871,0.274402,0.301424,-0.428087,10.5192,10.3106,48.9345,32.75,4.71399,5.03168,-1.58124,0.328083,-0.155985,1.59342,-16.7834,-41.5268,6.2197
500891,10,85.0,34.4375,-9.09277,4.59281,-4.96101,0.40936,0.398329,0.157988,18.6355,41.765,96.4772,37.875,5.37209,-4.94718,-8.36291,0.562103,0.0683424,0.715032,-24.9008,7.10732,32.5647,35.1875,9.42327,-2.1346,-1.72001,-0.151901,-0.0190524,-0.00960226,-55.6348,3.43738,25.4424
1768304,10,147.0,33.8125,-8.12313,5.25635,2.17144,-0.57225,0.416258,0.732336,60.263,16.6389,-23.4155,36.375,1.19306,9.01604,-0.236441,0.0976412,-0.114319,-0.198638,24.2084,-38.4317,52.6906,34.0625,9.23377,-0.677034,-3.39035,-0.159625,-0.152981,-0.587503,-18.5177,-49.3847,18.9876
562735,10,126.0,33.9375,-8.88885,3.33798,3.35955,-0.0755324,0.0403862,-0.975423,34.1138,-25.9752,-19.9274,37.9375,1.44505,8.15771,-4.52711,-0.0643355,0.643208,-0.280476,1.00771,-37.4552,8.87234,35.1875,9.5558,-0.989746,-2.53613,0.359867,-0.149868,-0.111888,-46.331,29.2817,15.1208
2112891,7,152.0,28.3125,-16.6085,-2.50588,-3.47166,-1.4246,3.92552,4.84954,-6.89187,-22.9747,-42.0679,33.4375,-1.54819,1.08519,0.552816,-0.883557,2.13096,-0.685374,18.861,-38.302,-5.58212,33.875,10.3577,-8.69736,-3.1361,-2.58573,0.327002,0.320451,-42.936,-1.8696,1.68491
1475769,9,91.0,35.125,1.71318,9.85987,-0.506331,0.55551,-0.59681,-0.263288,-13.0093,-35.1561,-3.92435,37.0,1.12161,10.8236,-0.24361,-0.320003,-0.386152,-0.389455,-8.49792,-34.3263,-5.51304,34.25,9.58671,-0.759923,-2.80737,-0.0385532,0.169975,-0.0366776,-15.3267,-0.0652702,32.6993
1971330,10,108.0,33.5,-5.22403,7.84318,-2.98966,-0.0926736,0.0263511,0.0617124,28.8464,-11.5823,-9.9263,36.75,1.88373,4.9648,-8.72937,0.0211533,0.00949234,-0.0673342,10.9753,-6.70084,21.5384,35.125,9.67785,0.65847,0.117571,0.0220963,-0.0398408,-0.00382512,-19.4745,-10.1034,7.59211
1820574,8,89.0,33.5,0.361015,8.62387,4.32699,0.00592847,-0.0144437,0.0658612,3.35145,-22.3894,-19.6515,35.75,0.749639,10.1207,1.41694,0.108029,-0.0646556,0.0247294,4.13013,-25.3766,-6.60402,34.6875,9.39351,-1.28933,-2.92183,-0.0198131,0.00653596,0.0122543,-18.2958,-2.54948,13.2608
320192,7,161.0,30.8125,-6.76819,25.7248,1.08352,1.91932,-1.8243,-1.60033,60.1103,-15.6238,-11.3182,33.9375,-3.0362,22.9644,-5.43084,0.00580846,-1.40793,0.617357,9.26489,-36.3569,41.85,33.25,4.86319,0.72794,-4.71734,1.85866,-0.576984,3.74167,-6.25067,-55.9253,-14.3375
1937593,10,88.0,33.9375,-10.0032,2.24352,3.03865,1.63322,1.24934,-0.477897,76.5979,-39.9551,-27.1736,36.8125,2.67122,8.89662,-0.48032,-0.344804,0.211321,-0.0362767,19.938,-42.4697,-4.56393,35.1875,10.3841,-3.85907,-0.503174,0.0672689,-0.406661,0.248869,-39.5723,22.5062,29.4676
2173208,5,66.0,31.25,0.436969,4.48674,8.46024,0.0270179,-0.028811,-0.0128733,-5.37106,15.4197,-33.7737,34.1875,0.807949,2.07828,9.30449,-0.00813459,-0.0614603,-0.0165919,35.3922,4.44906,-32.6417,31.0625,-0.994575,-8.64927,-4.98935,0.00124431,-0.00146802,0.0177488,-12.3024,29.5371,-6.47002
443706,9,90.0,34.0625,-8.30442,4.89934,0.284046,0.137782,-0.125885,0.00465834,22.046,-25.9903,1.85191,37.4375,1.07525,8.98935,-4.22675,0.00977677,0.0500723,-0.0508624,-10.0772,-25.2166,6.26911,34.75,9.69553,-1.64492,-1.45013,-0.013855,-0.0190056,0.000214353,-19.4054,-16.4112,36.5695
1241222,10,128.0,32.625,-7.5072,6.22942,1.2152,-0.0728398,0.0494409,-0.0225141,26.5688,-57.5071,-19.4856,35.4375,0.933099,9.59164,1.22837,0.0763052,0.073845,-0.0448287,-11.3019,-47.2509,-3.06209,33.4375,9.53423,0.157342,-3.50821,0.0318163,0.000110834,-0.0325712,-61.566,15.2836,45.9929
192534,3,169.0,33.75,-1.96557,10.1512,3.36329,-0.0555471,-0.0718672,0.324747,27.6086,-31.3595,-20.3738,36.9375,-2.57104,9.20057,-2.58977,0.0939867,0.0883888,0.0696162,32.3055,-32.288,1.63179,34.875,9.83971,-1.65494,-0.329487,-0.0262939,0.0143981,0.0398818,-35.8936,44.1377,15.1938
321419,7,164.0,30.8125,-1.43077,16.4732,2.23384,2.50246,-1.37446,-0.682434,47.4058,-9.73209,-22.9135,33.9375,-2.04352,18.5676,-3.65612,-0.802945,-2.04086,1.20293,22.64,-31.2547,33.8471,33.1875,5.42781,-0.362676,-1.77198,1.24518,-1.80303,4.95664,-14.391,-43.5225,-29.6109
1308921,12,111.0,31.3125,-11.4834,-1.99941,-1.74164,-14.0883,-0.20603,3.223,51.8509,7.40543,-27.8044,35.6875,0.90068,5.39852,-0.772072,0.0134095,-0.358689,-0.169496,4.69377,-46.5818,25.6693,33.5,10.0868,0.145671,-2.49914,-0.571699,-0.00789584,-0.346967,-45.0191,-15.8816,17.2954
479318,4,89.0,34.3125,-4.48631,1.87095,8.62624,1.50299,-0.416672,-0.220866,-18.3597,-13.9278,-68.497,37.6875,1.38315,9.25249,-4.14458,-0.103823,0.0322793,-0.00198172,-14.3977,-36.8725,1.40728,35.0625,9.60916,-1.527,-1.87623,-0.0391635,0.122329,-0.0127061,-38.2674,11.0367,38.6257
512570,11,105.0,34.4375,-7.15283,-2.12964,4.44316,-0.0743221,0.015144,0.847888,37.9245,-15.549,-10.1375,38.0,0.515969,6.33354,-7.44208,0.713559,-0.0437713,-0.111223,8.58441,-9.801,36.3595,35.25,9.77097,0.544544,4.71139,-0.154464,-0.564708,-0.124222,-25.0583,1.1248,-23.4774
1460323,8,77.0,34.9375,-0.0962229,8.4835,0.972216,4.07371,-2.37622,0.456366,-1.50954,-29.3187,-6.60768,36.875,0.595687,9.55635,1.41598,-0.210558,0.0112379,0.0461947,5.37913,-23.6179,-5.9003,34.125,9.02276,-2.7223,-3.84289,-0.0100171,-0.00608585,0.00507205,-35.7115,2.87326,29.5039
2766474,10,116.0,30.625,-0.616982,-8.50524,5.79416,-0.19825,-0.515448,0.192415,13.0876,27.724,-17.2193,34.0625,-0.392308,9.82354,1.47466,0.134674,0.116228,-0.029091,8.64463,-28.012,10.9269,31.8125,9.62092,-0.531064,-2.9628,0.0486844,-0.00823969,0.000479907,-24.8903,13.615,13.2188
2073802,10,113.0,29.9375,-7.39851,3.60441,0.532908,2.74562,-0.947484,0.62051,34.6353,7.46108,-19.8959,35.4375,-2.00263,9.39494,-1.41847,0.478902,0.0712957,-0.490108,21.4247,-23.1974,12.2575,34.375,7.75752,2.89017,-2.0384,0.607915,0.0591224,0.250721,-28.8576,-4.76536,0.0358052
2712897,10,124.0,32.4375,-9.63217,-2.14576,0.480361,-0.263384,-0.0265855,0.220715,34.8118,11.6823,-3.2554,37.0625,-0.951949,9.77292,-0.703692,0.0452599,-0.00266112,-0.0366981,18.704,-25.6634,-0.0147921,32.75,9.31027,0.272671,-3.51122,0.00100302,0.0555982,-0.108543,-21.0289,6.63664,26.0054
260069,0,146.0,32.5,-12.5453,5.35748,5.3378,-1.30367,-0.421918,1.75693,54.5823,-4.38857,-39.2558,36.9375,1.83555,13.0016,-0.779849,0.139871,-1.08711,-0.108253,19.7184,-61.959,5.20065,34.25,14.1875,11.354,2.72153,0.238336,0.585411,-3.68873,-43.4923,50.2256,0.467479
1640791,12,109.0,34.5,-8.46201,1.95462,1.79263,0.618635,-0.697777,3.30395,54.0223,2.21262,-11.5045,38.125,0.498576,5.40372,-0.19856,-0.362823,-0.208548,-0.310941,-9.80466,-46.4385,30.2207,34.0625,9.12372,-1.09526,-3.23452,-0.739577,0.011067,-0.280273,-40.8357,-16.3234,25.5369
2297245,10,141.0,33.9375,-8.29266,5.4325,0.513348,0.119277,-0.0212399,0.0203288,42.7718,-0.043268,-14.7488,37.6875,1.95506,9.76621,-0.302516,-0.0811734,-0.0299494,-0.00344166,12.5129,-30.0909,12.5167,32.75,9.46343,-0.756,-3.19455,0.024282,0.0275871,0.00153941,-35.2547,-3.76744,11.926
30065,5,88.0,31.9375,1.98015,9.24393,2.96361,0.396471,-0.0936495,-0.0226752,14.7564,-68.1752,-1.99114,33.6875,0.657887,9.57306,-1.6419,0.0773686,-0.0263334,-0.0036445,1.99885,-51.9681,40.3703,32.375,9.7806,-0.317455,-1.34172,-0.00572711,0.0235495,-0.0190586,-83.4847,-38.2003,-56.0966
731551,10,121.0,30.0625,-9.00584,1.24519,2.59511,0.375312,-0.0555699,2.0163,31.2687,0.379985,-17.1804,34.9375,-0.242856,7.22847,-3.54792,-0.475597,-0.658389,0.567661,14.3936,-21.8358,11.5481,33.9375,9.31263,0.717609,-2.20192,4.17095,-1.588,1.23799,-24.4623,7.33298,6.29082
2311389,10,83.0,33.75,-9.2771,3.51789,1.92909,0.0139408,-0.0691015,-0.219902,32.3214,-36.5692,16.4646,37.75,0.935011,9.73384,-0.011123,0.0400689,-0.0179567,-0.0490665,-26.9356,-28.3623,-1.72707,32.5625,9.39369,-0.833069,-3.00184,-0.00949545,-0.0180777,0.0238667,-9.95435,-1.42781,54.4201
2355490,12,104.0,32.8125,-10.8546,2.43427,2.40946,-0.478,0.496906,-3.09337,40.209,-28.3275,-18.9028,37.625,1.60063,8.48525,-0.57582,0.319495,-0.235874,0.245369,-4.69338,-38.7141,-13.4989,32.0625,-0.0696413,-1.0135,-1.55419,-1.29266,0.108803,1.7681,-35.1157,-21.7609,24.7123
2457723,10,77.0,33.5625,-9.61025,-1.68579,1.01796,0.0287953,0.003308,-0.00178606,49.4089,-10.0601,10.3638,36.4375,0.259541,9.85128,0.324746,-0.00479258,0.0182355,0.0112397,6.80197,-39.3066,23.8096,33.125,9.633,-0.1163,-2.61794,0.025252,-0.0502022,0.0236569,-35.5746,38.0026,-17.9083
2153536,5,76.0,30.375,0.294638,4.41438,8.72776,-0.00216351,0.0492064,0.0143321,-4.52507,16.6162,-32.8641,32.875,0.698479,2.19263,9.45702,-0.00904156,-0.0117732,-0.0375486,35.7767,4.56384,-32.6396,30.1875,-0.945244,-8.69101,-4.5641,0.0199421,-0.000773515,-0.00503989,-11.916,29.0008,-7.1772
817966,10,126.0,28.9375,-0.0432361,-0.0134968,9.69982,-0.0113567,-0.0169939,-0.0146642,-22.1638,14.3088,-63.8671,32.4375,-1.50027,-10.0751,-7.11551,2.33674,-0.753012,-0.138939,11.0962,18.1937,20.7455,30.5625,-3.08066,-2.40602,8.57263,-0.000278545,0.0303169,0.0211938,21.7301,12.3294,-53.0761
2498558,8,67.0,34.25,-2.27449,-6.73919,6.64859,-0.0379347,0.0385615,-0.0148891,7.26108,15.8653,-29.3401,37.625,0.652671,9.62702,0.758528,0.0355851,-0.00463169,-0.0235853,4.73765,-25.1432,-4.62706,33.875,9.15942,2.58287,-2.67814,0.00111621,-0.00551777,0.0184982,-18.8004,15.6651,25.5773
50112,8,92.0,32.5625,-7.80055,4.20844,4.06569,0.0174292,0.00277666,-0.01365,-2.33535,-48.984,-29.4792,34.25,1.06298,9.69894,0.45596,0.0106194,-0.0333483,0.00970686,12.1152,-63.5404,-38.432,32.9375,9.19095,1.03597,-3.90308,0.0386021,-0.0291532,-0.0123466,-84.6528,37.5675,16.389
1374705,10,104.0,28.875,-5.97075,3.34691,6.90558,-0.0180525,0.0135316,0.00461691,47.4848,-26.4897,-30.0834,34.0625,0.812464,7.61888,-6.55031,0.027443,-0.00413561,-0.0106333,-8.47465,-25.484,47.1726,32.75,9.51897,2.06907,-0.471656,-0.0087518,-0.0191971,-0.000561751,-32.1035,-19.4998,12.9482
1439172,5,80.0,34.9375,-8.61141,3.59451,2.59309,0.11004,-0.0356751,0.108315,50.1424,12.8444,-10.6425,36.75,2.51052,9.10089,1.80064,0.047761,-0.0709143,0.00672539,1.17286,-42.4445,16.738,34.1875,9.47569,0.115029,-2.92971,0.00337599,-0.00949993,-0.0382503,-39.7287,-52.3084,22.1785
1464155,8,79.0,35.0,8.92595,-0.289496,3.71561,-0.0762367,0.00367441,0.0478255,-19.6684,6.76167,-18.8631,36.9375,1.0786,9.55196,0.998814,-0.0146468,-0.0104075,-0.0264741,3.28704,-23.8008,-3.79875,34.1875,8.9446,-2.72086,-3.95947,0.00488345,0.00643818,0.00995514,-36.2252,2.50971,28.5097
1980235,1,123.0,33.375,-4.13845,3.69548,0.850845,0.58309,0.0789992,-0.637185,61.2865,-4.62522,-7.14709,36.6875,0.0887715,7.25108,-0.057105,0.0484978,-0.106225,0.286093,0.824921,-50.4411,29.6124,35.0625,0.895137,2.25302,-2.45213,2.39184,-0.722753,2.40255,-19.3402,-44.6976,22.8087
635828,10,127.0,32.125,-9.17147,2.60614,1.89526,0.108534,-0.000349404,-0.033451,28.8252,3.46009,-34.1314,36.625,1.12187,9.17931,-3.95547,-0.0110692,-0.0637663,0.0458931,24.6298,-23.9258,19.423,34.75,9.72785,-1.56761,-1.64322,0.00904147,0.0052328,-0.0113142,-22.8615,8.16249,-2.37794
721742,0,126.0,30.25,-9.61662,6.19127,3.56995,-2.086,0.219279,-1.41538,42.2563,9.1654,-22.1879,35.1875,-0.06497,12.2211,-5.7293,0.726164,0.168386,-0.0328104,14.1075,-21.0227,33.6089,34.0625,12.9668,33.3642,0.372817,-1.00161,-0.668565,2.62966,-41.3619,15.8226,10.1092
921585,4,88.81818181818181,32.625,-5.74798,-2.85713,9.16212,0.0783378,-0.668237,0.266299,7.36324,8.84058,-42.623,35.8125,0.526386,9.56953,-2.22509,0.0444195,0.104128,0.266095,6.41298,-36.363,-8.08251,33.5625,9.71364,0.147721,-2.46439,0.0860355,-0.160397,0.17009,-36.4245,20.7426,33.8868
2703965,12,122.0,32.6875,-12.4426,-0.64089,0.81806,0.890713,1.8755,2.65358,26.607,24.8777,-39.2764,37.25,2.42762,11.3049,-6.37815,-0.775162,0.141959,0.361877,-7.40441,-38.2271,-13.5205,32.875,18.8521,1.16812,-8.89865,1.47061,1.62185,3.8747,-44.0376,16.7401,6.90723
883489,8,77.0,31.8125,0.509698,7.95016,5.48611,0.0126422,0.0330334,-0.00521542,1.17677,-22.9592,-21.2536,34.75,0.800807,9.15387,3.24089,-0.0229318,0.0296509,0.0122902,3.8286,-18.0705,-7.23897,32.75,4.29632,-5.58523,-7.65537,0.0737481,-0.0729675,-0.0386603,-13.1918,15.5732,29.0618
1574210,1,115.0,35.0625,-9.64686,5.88926,-0.50915,-1.60265,-0.447662,1.0528,52.9369,13.3103,-18.6561,37.8125,3.84744,11.3465,0.423608,0.546148,1.65728,-0.187075,-18.3591,-20.9778,33.4008,34.125,2.09952,17.0844,-6.31359,1.55265,-0.37243,-1.12859,-41.3779,-2.80471,60.1263
899942,9,79.0,32.1875,-2.73287,7.41514,-6.22233,0.781556,-0.450481,-0.467018,1.25865,-21.8886,5.14314,35.25,1.9092,6.81448,-8.03794,-0.000315757,-0.218468,0.0360709,-4.43624,-19.8013,16.6586,33.125,9.00219,4.08569,-0.60524,0.115918,-0.197295,0.305314,0.232512,-5.48156,16.8447
1943584,10,94.0,33.8125,3.70987,-0.740634,8.06505,-0.771211,4.25162,0.805085,-29.5008,-6.88459,-54.3243,36.8125,-0.418737,4.58687,1.06527,0.0563563,-0.611937,0.0726496,16.4063,-44.3918,-15.0119,35.1875,8.44896,3.76601,-2.88571,-0.712622,-0.440567,-2.09466,-40.5347,40.2666,11.0054
2449950,10,98.45454545454544,32.5,-9.39821,2.60789,1.89186,0.980728,-0.215446,-0.381626,42.3484,-3.37358,-18.1398,36.9375,0.0513651,10.1113,-0.299405,0.046314,-0.179549,0.0239518,7.38018,-40.7357,13.5284,32.0,9.15866,-1.36096,-3.2711,-0.241295,0.0889437,-0.0119757,-24.2532,10.4753,7.12593
2320039,1,147.0,33.5625,-5.7292,6.09401,4.59069,-0.919073,-0.686247,-0.438348,50.4822,-19.4409,-13.597,37.75,-0.689016,6.86489,-1.8511,-0.228362,-0.313591,-0.0525544,11.256,-35.0935,30.8669,32.375,2.34438,-5.24439,-1.38741,1.16972,-0.041017,-1.41323,-27.4159,-12.8129,45.862
2286124,10,90.0,34.1875,-9.5155,2.37077,0.736284,-0.0702773,-0.0177478,0.0555677,40.0243,17.3549,-11.6992,37.625,1.52664,9.76545,-0.620043,-0.0374439,0.050905,-0.0209603,14.6389,-29.9235,23.9519,33.0625,9.25724,0.239436,-4.05182,-0.00151009,-0.0577873,-0.0127207,-23.6634,-2.1874,1.61124
54895,9,104.0,32.75,-0.602635,8.91963,2.61812,0.0937691,0.199717,0.0129234,29.7113,-45.8395,-46.2458,34.375,-0.68639,9.73418,-0.737476,0.0524457,0.280868,-0.0643984,38.1649,-56.8018,-15.1056,33.0625,9.91049,-0.323306,-0.722921,0.0119499,-0.0363628,-0.0156353,-85.1604,37.8629,-4.76986
2083568,2,120.0,29.625,-1.41015,4.38001,11.8583,-0.981242,1.58477,-0.740195,39.364,-18.3677,-38.1213,35.25,0.521349,3.46606,-8.28453,-0.673965,-0.319182,-0.72126,5.27037,-2.39453,51.0852,34.3125,14.1591,0.225296,-1.41596,-0.381048,-0.0704626,-1.16866,-38.7059,-20.4546,14.0607
529689,10,90.0,34.5625,-5.47518,6.17484,5.36397,-0.0113083,-0.0141628,-0.0931184,17.6886,-24.6432,-15.5587,38.125,1.17058,9.29449,-3.60648,-0.045299,0.0540891,0.0169926,-4.15305,-22.7357,6.60751,35.375,9.73544,-1.3797,-1.41277,0.00108079,-0.0309714,-0.00458499,-1.14979,-5.77044,25.765
2684851,12,115.0,33.25,-12.5985,-0.0447272,-0.533345,0.353721,-2.4955,-5.39679,38.2016,18.5543,-33.4873,37.625,0.408945,4.80758,0.692336,-0.229384,0.028433,0.495489,0.853572,-39.4347,-13.4562,33.25,9.21656,-0.595957,-4.00846,1.06593,0.115753,0.0996363,-44.3458,-8.04203,23.9547
1131995,8,74.0,33.0,-2.50977,6.46931,6.94689,0.026216,0.0271856,-0.0135829,8.8288,-21.0708,-22.9514,35.125,1.06914,9.56994,-1.90549,-0.0218645,-0.0136459,0.00576736,2.66432,-24.6883,3.53418,33.875,9.66768,1.87828,-0.468947,0.00489764,0.0361542,-0.0204879,-6.13726,-5.57516,22.3843
520492,11,97.9090909090909,34.4375,-9.3354,3.57901,0.234569,0.137275,-0.442256,-0.994073,27.8164,-15.1746,-19.0445,38.0625,0.60271,9.73996,-4.81856,0.313624,-1.54435,0.104476,7.95213,-26.1063,13.2833,35.25,9.51024,-4.03993,-0.935498,-0.69449,0.456907,1.18292,-19.8882,-7.2431,20.2087
2181481,8,80.0,31.5625,-9.17709,2.75622,1.70224,-0.0558959,0.0364029,0.00903897,32.8112,-28.7954,-10.2236,34.5,1.25281,9.8487,0.420191,-0.0148521,0.0615871,0.0146521,-7.08603,-29.6023,-9.61916,31.25,9.38576,-0.450492,-3.3516,0.0101226,-0.0417873,0.00163929,-15.7772,-0.121711,49.5758
2783936,0,123.0,30.75,-5.57361,-15.2954,5.85829,-0.571032,-0.363376,0.0336921,10.0159,30.3541,-40.5883,33.8125,2.88799,12.0341,1.41074,0.276641,0.116822,-0.145481,-7.31459,-39.653,-9.8457,31.75,17.9782,-14.7271,4.11854,2.19471,0.457592,1.54501,-25.2208,-34.634,17.9541
1592666,10,104.0,34.75,3.86117,5.54504,6.77603,-0.00264756,0.0173648,-0.0176193,31.9053,-37.8336,-50.7177,37.875,0.943977,9.22041,-3.5329,0.0046,-0.0288362,-0.00825052,2.99754,-21.0096,50.0471,33.875,9.3425,0.121844,-3.66432,0.0262179,0.00804986,0.00451224,-16.6876,-32.4423,32.3066
420383,8,76.0,33.875,-1.34124,6.80037,6.80933,-0.00670803,0.0288726,0.0077671,-1.33471,-21.7945,-24.337,37.3125,1.13132,9.29435,-3.64591,0.0123365,-0.00214353,-0.0268432,-2.60326,-21.554,6.14231,34.6875,9.50475,-2.5553,-1.40784,0.0159645,-0.04745,0.0220828,-14.8705,-5.11111,20.8093
1906736,10,86.0,34.125,-9.54371,0.565367,2.47388,-0.431699,-0.465265,1.12017,29.0742,-13.8139,11.0839,36.625,-0.604789,10.0362,-0.582095,0.0948707,-0.264055,-0.107745,-13.9649,-26.6572,6.53175,35.125,4.87342,-0.285109,-1.54661,-1.6002,-0.115285,0.753729,-6.07806,-19.538,47.2213
2154045,5,75.0,30.375,0.447404,4.26213,8.80754,-0.00102854,0.0135377,0.0240582,-5.64943,17.2964,-33.2596,32.9375,0.692362,2.04072,9.26379,-0.0120458,-0.00570583,-0.0170572,35.2841,3.55073,-33.0603,30.25,-1.02439,-8.87941,-4.67951,0.0318819,-0.000387902,-0.00500485,-12.9395,29.0514,-7.3227
64013,9,107.0,32.9375,-8.43163,3.29754,3.482,-0.048993,0.0222512,0.00700109,66.9477,-29.1349,9.98343,34.5,0.357844,9.68801,-1.49283,0.010261,0.0364205,-0.0282865,-29.5211,-53.9447,29.4703,33.3125,9.27034,-3.38758,-1.59803,0.0658159,0.0530366,-0.0587685,-98.4993,-28.0304,33.2554
2133987,10,159.0,27.9375,1.7525,6.57606,5.66332,-0.317729,0.251302,-0.096071,9.53521,-26.9415,-23.5734,33.1875,1.26486,9.504,-0.430331,0.00670105,0.0851801,-0.044931,0.441383,-28.8684,9.46463,33.875,9.34253,-0.296453,-3.58454,0.0471116,0.0262645,-0.0425263,-42.2079,9.70247,8.90748
421935,8,76.0,33.875,-1.19517,6.8358,6.65745,-0.0246566,0.021573,-0.00273013,-1.75346,-21.7882,-22.9434,37.3125,1.09072,9.21864,-3.72384,0.0476497,0.0314412,-0.0224464,-3.21026,-20.4152,6.01206,34.6875,9.46253,-2.62971,-1.56217,-0.0218327,0.0228978,0.0155534,-14.761,-4.78727,21.0594
2532661,9,80.0,34.5625,-9.09141,-3.08395,2.1081,-0.00994005,0.0130973,0.0139004,44.7927,0.218205,-19.0852,37.625,-0.0609138,9.74457,1.09371,0.0178016,0.0175014,-0.0250058,-5.4334,-37.4102,-1.10307,34.375,9.12989,-0.325848,-4.4741,0.026567,-0.00886611,0.0185338,-36.9379,-2.91271,11.3518
1491145,9,88.0,35.25,-7.72895,3.07069,4.18606,0.949437,-0.26985,-0.843369,42.9592,-5.8744,2.08385,37.1875,-0.151215,10.0427,0.587729,-0.0203085,-0.360304,-0.242732,-5.56822,-26.8365,5.04015,34.375,9.59081,-1.03799,-1.30061,-0.368677,0.0502951,0.259096,-6.81473,-9.10853,35.1509
2522925,9,75.0,34.4375,-9.22803,1.13447,2.7461,0.0372084,0.0222216,-0.0186132,38.3292,-13.9605,-25.5477,37.5625,-1.1006,9.63249,0.726747,0.00203433,-0.00569936,-0.0160866,-0.712486,-36.2964,0.474501,34.1875,6.48976,-7.3976,-1.25435,-0.0316051,0.0363224,0.0219554,-13.8343,28.9055,15.3675
2297729,10,139.0,33.9375,-9.4713,2.52358,0.89038,-0.550985,0.0106381,-0.661723,36.9643,-12.5041,1.61127,37.6875,1.80096,10.4437,-0.423673,-0.187788,0.141185,-0.142028,-7.13857,-24.981,12.6329,32.75,9.49082,-0.144885,-3.66114,0.162099,0.108629,-0.0832013,-23.9879,-7.49054,31.401
2083141,2,119.0,29.625,-13.6905,2.4655,3.40603,-0.411483,1.23359,0.221025,73.0729,17.3085,-40.6369,35.25,0.728561,3.8543,-6.46215,0.804837,0.00252381,0.330722,46.2498,-18.6143,56.2566,34.25,3.44851,5.11375,-1.36319,0.597445,-0.261093,1.34659,-35.2543,-35.7749,-14.7013
1488719,9,87.0,35.25,-9.76675,3.18123,2.03836,1.87223,-1.31299,-1.94793,33.8102,-20.5236,5.47202,37.125,1.46747,9.73192,-0.0401913,-0.169266,-1.65008,-0.147627,-13.4042,-24.6095,1.87089,34.375,9.34354,-0.524907,-3.50593,-0.251323,0.0812672,0.137596,2.21927,-7.75578,35.4648
1382469,2,133.0,28.625,-4.78303,-1.25895,10.5182,0.642834,-1.70436,0.719857,41.171,-3.69807,-40.3137,33.9375,-0.236859,5.01223,-8.30329,-0.885085,-0.739576,0.73999,-4.80597,-38.2336,24.0047,32.75,11.0484,8.71542,-1.88644,0.759869,-0.380552,-0.91019,-40.6843,-13.122,22.2715
1143405,9,99.0,33.125,-7.79347,6.04642,1.71186,-0.319726,0.298264,-0.000158557,31.3462,-18.7824,0.085936,35.1875,0.400638,9.59357,1.25744,0.35862,0.474774,-0.0202771,-3.47258,-27.4116,-12.1445,33.875,9.60563,0.755608,-2.43068,0.109791,0.0128982,-0.02043,-2.70485,-0.830573,30.3335
1632965,12,114.0,34.4375,-6.2975,1.85511,1.05564,-0.631465,-0.460989,1.90985,22.8112,-40.7975,-13.4114,38.0625,1.35103,8.07604,0.0405234,-0.129626,-0.254035,-0.0660318,-10.795,-37.0719,-11.9996,33.875,10.5601,1.62947,-3.2367,-0.0248794,-0.345053,-1.04347,-38.0823,18.0525,28.7688
1061857,12,119.0,29.1875,-10.5622,2.20341,6.53276,2.28483,0.958357,0.910819,38.8712,34.4139,9.83264,36.75,-2.19559,13.2596,2.01163,0.0644988,0.109259,0.189726,22.3119,-40.0129,27.4562,34.5,15.2025,29.4076,-9.69017,-1.44779,-0.646665,0.454532,-47.9714,-0.595545,9.493
2066952,0,110.36363636363636,30.125,-7.85914,-0.816385,-2.03773,0.0986526,0.459346,-2.64586,17.838,-26.7625,-21.0979,35.625,4.07527,12.8972,1.5456,0.184944,0.30358,-0.250091,5.20979,-29.6815,2.1702,34.5,15.2311,0.634657,-5.8839,0.0368743,0.412572,-2.80862,-29.0878,-20.6994,6.43592
1466344,8,77.0,35.0,-0.402662,7.05664,6.5916,-0.00685921,-0.0222615,-0.0264739,2.79975,-21.8698,-28.8398,36.9375,0.531939,9.52179,1.84087,0.0248251,0.0113923,-0.00876525,5.13082,-23.6081,-6.4661,34.1875,8.9437,-2.68257,-3.99831,0.035214,0.0224104,0.00939701,-35.3163,2.72731,30.3565
1930256,11,114.0,34.0,-6.17777,4.65838,0.6631,-0.0427666,0.21645,0.159581,31.9326,-3.43984,-20.743,36.75,0.107899,9.57977,-0.916188,0.0474205,-0.198685,0.243507,20.3615,-30.1148,5.09817,35.1875,9.83714,-0.236531,-1.99767,-0.0828352,-0.0803388,0.3886,8.65442,5.38638,-26.7921
475947,4,85.0,34.3125,3.27941,10.3359,3.17182,1.64875,0.48202,-1.04393,1.75658,-45.4868,-15.2537,37.625,1.42265,7.31601,-6.49955,0.0667176,-0.178074,-0.105744,-23.3421,-23.6568,30.7081,35.0625,9.33931,-1.97936,-2.06914,-0.155779,0.0373872,0.0815067,-35.5676,3.63034,40.8764
1267162,3,139.0,32.4375,-3.76742,5.29247,5.7774,2.81212,-0.22052,-1.75248,47.3033,-19.6475,-19.4947,35.625,-2.11678,13.5059,-0.504602,0.75405,-2.00816,-0.351466,-4.17618,-32.8441,27.6446,33.5,4.26465,-1.7935,2.31547,-0.548211,-1.94678,3.05133,6.7425,-37.1606,7.43205
907049,9,85.0,32.375,-8.86256,3.22118,3.05244,0.120393,0.0846364,-0.322176,27.4094,-18.6685,-16.3,35.4375,0.552252,9.70579,1.2211,-0.0687941,-0.0101749,-0.0410788,-3.13283,-26.0834,-9.80698,33.25,9.73598,-0.429197,-1.57302,0.0177628,-0.0392346,-0.0353404,-6.91109,-3.44921,24.104
1884692,4,84.0,34.0,-1.97133,5.14204,7.49826,0.756401,-0.219116,0.768451,0.67956,-32.9327,-39.6607,36.375,1.03828,8.98973,-4.1887,0.810716,-1.71414,0.532265,-2.4938,-38.2947,1.03747,35.0,10.1424,4.33248,-13.1367,1.80937,-0.317972,-0.184485,-27.5476,11.7856,46.4003
935657,4,83.0,32.8125,-4.67198,6.209,5.6453,0.311604,-0.611794,-0.946298,11.6125,-20.5482,-35.8132,36.125,-2.5242,9.62512,-1.04146,0.0771178,-0.515817,0.0316418,7.22702,-30.9352,-5.85642,33.75,9.82934,0.999239,0.117009,-0.439291,0.0782601,0.564028,-37.734,16.2026,30.2595
663258,12,122.0,31.75,-15.3536,6.7957,2.4813,0.665243,-1.1064,5.35529,38.2436,-12.83,-28.3969,36.5,2.08573,11.3063,-6.34562,0.542398,-0.126241,0.0324924,14.0437,-22.2407,32.6256,34.5,10.8107,-3.31229,-2.7018,-0.0234217,0.643241,-2.08505,-39.108,-12.4185,3.84813
1140894,9,103.0,33.0625,-8.48408,4.7614,1.66737,-0.03398,-0.0196329,-0.0050177,28.4181,-26.9461,-7.99501,35.125,1.218,9.51965,1.85331,0.0122091,-0.00769213,-0.0348993,1.88973,-27.8625,-16.7578,33.875,9.50629,0.497048,-3.24048,-0.00813222,0.00025775,-0.00274089,-5.80982,0.220037,28.4775
320013,7,161.0,30.8125,-8.40486,-4.20545,0.351744,-0.131529,-1.24882,-3.35745,8.73885,-54.2996,-4.55016,33.9375,-0.346021,-1.79128,-1.04234,0.232299,-0.821385,-0.345799,-1.72763,-52.2301,21.559,33.25,16.5188,-2.78953,-6.0038,0.51414,0.831206,-4.42303,-31.1537,-45.4671,-12.9082
745725,2,115.0,29.5625,-8.92025,6.88275,9.35115,0.453028,-0.43096,-0.398817,43.9826,-8.53867,-32.5826,34.5,-1.62638,1.316,-9.86529,0.256824,-0.0481045,-0.418624,9.0167,6.0135,40.5551,33.25,12.398,-2.2727,-1.03262,-0.0898919,0.742243,-2.30407,-38.4696,-9.36684,4.98947
492381,4,89.0,34.4375,-2.33237,4.69472,8.07167,0.0659498,-0.15294,-0.260366,-12.8289,-19.4905,-41.6555,37.8125,-1.18152,8.99456,-4.53869,-0.0492079,-0.236145,0.154994,-4.66687,-33.308,3.76614,35.125,9.81478,-1.5823,0.0942914,0.0332535,0.0621395,0.0664816,-42.2091,0.673023,31.8634
786519,10,118.0,28.25,1.4081,8.22202,-5.70117,-0.0543727,-0.037832,0.584896,-2.49663,-19.2576,29.0546,31.875,1.2788,9.14222,-3.79762,-0.210265,-0.352763,0.114396,-20.3469,-33.6095,8.43093,30.125,9.64216,-1.10766,-2.11003,-0.394772,0.158554,0.05208,-36.2264,0.289032,36.6377
2545355,4,93.0,34.6875,-2.21634,-5.59941,2.64293,3.08078,-2.89302,1.77537,0.641831,30.8583,-34.9294,37.75,-1.82451,9.58843,-0.564016,0.0581823,0.17965,-0.117368,-6.43951,-38.396,-9.42373,34.5625,9.3526,0.156922,-3.31712,0.127505,-0.0490558,0.0176348,-41.5932,-23.1799,1.57252
1472147,8,83.0,35.0625,0.105557,-9.18279,2.80526,0.00183148,0.0139599,0.00739722,4.6976,27.4328,-9.06414,37.0,0.322986,5.04629,8.0857,-0.00283886,0.0672686,-0.0164716,4.58064,-7.96994,-18.8261,34.25,9.09302,-3.18844,-2.60441,-0.0026667,0.0345831,0.0314682,-38.2305,5.56372,26.088
4549,5,107.0,30.5625,0.204319,5.92616,7.99005,0.144013,0.010451,-0.028461,-30.9626,17.5743,-41.1641,32.375,1.03739,2.79272,9.2676,0.211649,0.0399108,-0.0886272,40.6105,9.40697,-54.6943,30.9375,-0.522257,-8.42004,-5.52618,0.0126507,-0.0166306,0.00660829,-14.8953,43.1708,-9.62018
2723063,10,104.0,32.375,2.23255,-9.05471,2.02845,-0.448256,0.622029,0.145653,-8.96878,26.5498,-7.98124,36.9375,-1.43869,9.62593,-0.402264,-0.00204315,-0.893667,0.227566,19.6625,-26.2115,-2.9661,32.4375,9.34109,0.274361,-3.74246,-0.391332,0.102835,0.0933167,-25.1604,11.3626,30.6658
1821791,8,78.0,33.5,0.129458,8.88952,4.13019,0.048485,-0.0134742,-0.0162758,3.85292,-23.0363,-19.1237,35.75,0.915743,9.51245,0.647504,-0.0960494,0.0547604,-0.0504522,3.18879,-25.3444,-4.21368,34.6875,9.61466,-1.09963,-3.0751,-0.0349581,0.0120079,0.0169922,-18.552,-2.79586,12.6928
958557,11,93.0,33.125,-11.1649,4.09121,0.74426,-0.235838,0.162536,0.687595,28.257,-12.2859,-8.71855,36.625,0.222932,9.11049,-3.42944,0.191482,0.299,-0.0561455,1.88538,-29.1631,3.13569,34.0,8.88707,2.46875,2.22065,0.479736,0.079208,-0.0983961,-0.314791,-0.0197138,14.0605
2216105,9,75.0,33.25,-9.32362,2.59728,0.776881,-0.0717909,0.0859235,0.0555523,29.8802,-16.8469,-6.09074,36.0,1.62657,9.49841,-1.08202,-0.0101768,0.0761612,-0.0464107,-3.69716,-30.7658,-3.24378,32.5,9.3431,0.23575,-3.66502,0.0332266,-0.0327809,-0.0620223,3.49063,-7.24205,12.9174
2516848,9,98.0,34.375,0.161443,-8.82792,4.34439,-0.0277794,0.125547,0.0691046,3.33492,24.138,-33.9755,37.5625,-1.36905,9.4448,0.683773,0.0862544,-0.0323218,0.0422824,4.79023,-31.8463,-9.38278,34.0625,9.55307,-0.45658,-2.73242,0.0122824,0.020495,0.0542198,-1.71573,19.302,19.818
2320069,1,147.0,33.5625,-10.1514,7.33986,4.25083,0.991341,1.1207,-0.576499,43.9948,-15.8699,-16.3614,37.75,-0.6854,15.1445,-2.49749,0.0517989,0.308676,0.561473,4.63482,-30.8506,30.2327,32.375,12.9025,5.12466,8.68981,-3.13578,2.92549,-1.05565,35.4443,7.21734,-0.602887
2384462,10,82.0,33.0625,2.91402,8.5803,1.70975,0.0522343,-0.179605,-0.0383018,1.11765,-35.1725,-14.0577,38.25,1.23605,9.99543,-0.161403,0.0355454,-0.317817,0.0106784,-4.05386,-35.2772,6.93167,32.3125,9.1954,0.198087,-3.58912,-0.105481,-0.0473219,0.150166,-45.7347,17.6261,16.6866
1164489,4,111.0,33.4375,-2.01414,6.26747,6.0313,0.420972,-0.6696,-0.929188,0.858343,-51.199,-61.0723,35.375,0.125067,8.27795,-4.08676,-0.13945,0.296881,-0.168986,-3.83021,-45.9858,3.32791,34.0625,9.44272,0.760411,-2.89546,0.203666,0.0987448,-0.0359203,-45.9528,8.3324,48.467
840093,5,89.0,31.0625,-8.91772,4.32276,-5.30387,3.4464,-4.87266,-1.76152,40.6737,-12.0439,9.54272,33.0625,1.69634,7.47601,-4.98499,0.64761,-0.922943,0.655619,9.10343,-18.0906,36.7239,31.1875,9.44799,5.98513,-1.07553,-3.44931,0.51329,0.122991,-52.1925,-62.8398,30.7724
1143461,9,99.0,33.125,-9.02651,4.9515,1.23524,0.299263,0.133935,-0.136924,29.798,-22.0522,-2.64697,35.1875,0.318395,10.3451,0.982464,-0.0317717,0.184963,0.134968,-0.904717,-28.0233,-11.1362,33.875,9.45062,0.796131,-2.62547,0.06823,0.00690926,0.107018,-2.97279,-0.302651,30.1901
1586535,3,106.0,34.875,0.657911,8.83522,-5.67599,-0.561832,-0.936171,1.55951,15.2847,-34.5341,29.4787,37.8125,-1.95579,12.9892,1.12627,-0.137665,-0.678228,0.22355,-3.83218,-47.6394,-18.3774,33.9375,20.3028,1.14007,-6.56822,-1.69028,-1.00165,-2.48849,-26.0185,-17.5115,47.858
1926904,11,101.0,34.0,-3.93097,8.85908,1.41384,-0.114945,0.368997,0.127632,20.1847,-16.5776,-6.20396,36.75,-0.723366,9.86757,-3.29416,0.16201,1.43424,-0.150447,8.00177,-16.5154,15.7923,35.1875,10.9011,-1.59542,-3.79203,0.414484,0.586878,-0.3191,13.2135,-4.77919,8.41008
890245,8,70.0,31.9375,1.13674,9.43669,2.56545,0.0319684,-0.00630607,0.0113146,-1.45984,-22.1417,-13.6922,34.9375,0.719357,9.34108,3.0452,0.00738243,-0.0067462,0.0285847,4.18683,-18.5272,-7.47931,32.875,9.67033,0.688002,1.15923,0.0458857,-0.0154898,-0.0027464,-14.1314,-3.33803,18.2228
2780191,0,124.0,30.6875,0.427503,-1.45424,1.78333,1.16303,-0.210523,-1.40019,18.5966,37.9736,-23.9854,33.8125,0.113449,4.76428,-0.2809,-0.00224502,0.33415,0.346563,4.53653,-40.7604,14.2138,31.8125,8.11488,-0.567663,-1.97469,1.04193,0.282536,0.538332,-40.8205,20.3409,16.2753
577372,10,103.0,33.75,-8.37245,7.04221,2.23865,0.6985,0.211469,0.771567,32.7954,-27.2933,3.91361,37.75,-1.5044,10.9946,-4.04767,-0.104805,0.373687,0.122105,-16.4371,-30.0076,15.7272,35.125,11.3913,-15.4899,0.273947,0.843553,0.454551,-2.44059,-17.144,8.71058,41.3988
2415019,0,125.0,33.0,-1.6367,8.94239,0.0238963,-0.0370092,1.49558,-1.56718,12.7299,-38.5233,-15.242,38.3125,-0.823698,12.2882,-1.75501,0.687631,-0.287987,-0.152696,5.22906,-40.1375,10.69,32.5,14.7063,8.73781,-7.44456,-0.408918,0.579429,-2.97129,-22.0958,-30.0862,-2.32218
342103,10,133.0,30.1875,-8.05042,1.05977,-0.314995,1.09343,-0.849424,0.384006,84.4234,16.0009,-24.6803,33.625,7.02612,-2.11781,-6.7933,-0.851706,-0.723239,0.260895,-11.8652,6.8798,70.8839,33.0,9.31077,1.63078,-2.43914,-0.0725327,0.419758,0.735196,-61.1411,-26.1024,-29.1666
1374932,10,104.0,28.875,-5.88954,2.81752,7.17799,0.000292598,-0.00018075,0.0110986,47.0963,-24.3604,-31.6703,34.125,1.1965,7.84413,-6.46664,0.0184017,-0.00747533,-0.00888969,-7.95632,-25.2447,46.7518,32.75,9.59311,2.14486,-0.509956,-0.012178,0.00762615,-0.0105598,-31.0883,-19.1637,13.0932
1746213,7,158.0,33.8125,-9.83601,-2.42291,-0.984278,-1.82363,0.843441,4.66795,22.4555,-42.8973,-26.9148,36.4375,0.945537,6.93404,-1.9766,-1.16357,2.06118,-0.844575,2.73312,-40.323,29.4272,34.0625,16.3842,-4.35681,0.0631111,-1.97632,0.173021,-0.504939,-28.9162,-30.4335,26.4461
2277964,10,90.0,34.25,-2.17226,10.3473,3.89836,1.3622,-0.453946,-0.778745,29.893,-22.581,-42.9322,37.5,1.42068,9.75895,-1.62869,-0.0622901,-0.216275,0.1111,13.3669,-35.0145,4.3723,33.1875,9.71762,0.488795,-2.38929,0.0395119,-0.159981,-0.00963239,-29.5028,15.3606,3.27233
170835,10,128.0,33.75,1.83744,9.56852,0.959033,-0.00524181,0.736956,0.298036,-17.8991,-33.9307,4.07546,36.5,0.477907,9.68895,-1.29705,-0.165173,0.784192,-0.0110149,-22.0244,-36.6393,3.74343,34.8125,9.96835,-0.623032,-1.26072,0.172719,0.484544,-0.00638838,-42.3756,1.41379,26.3026
768804,7,110.0,28.9375,-3.21689,13.104,1.52568,0.147178,-2.30022,-1.71154,7.42704,-39.8008,-17.5719,32.4375,1.63546,10.9706,-6.08164,0.00324502,-2.31171,1.39061,-2.1942,-39.2104,4.77631,31.875,9.46374,-0.908195,-3.15502,1.74196,-2.86855,5.9216,-42.8465,-2.19851,16.9845
2688646,12,120.0,33.125,-15.0429,-0.73256,1.01034,0.89524,2.11338,3.11421,38.6215,9.46894,-39.2073,37.5625,1.68261,11.3751,-1.93896,0.0644472,0.17146,-0.117198,-10.6479,-37.2053,-12.9849,33.1875,-0.00561035,4.74185,-4.32911,0.490725,-0.0792618,-0.419675,-40.0324,23.3462,0.956709
1048376,12,120.0,30.5,-11.401,7.482,6.30995,0.264531,-0.394291,0.795645,25.6894,16.8558,13.0348,37.0625,2.68345,11.1975,-5.44386,0.14138,-0.134804,0.254743,-2.82828,-25.5422,27.5846,34.625,6.61051,3.75163,-4.37088,1.0555,-1.60688,-2.83354,-36.6131,-6.08395,18.8725
986532,10,93.0,32.0,-8.84802,2.19251,2.59428,-0.167725,-0.0355635,0.707993,18.0713,-5.74557,-22.8818,36.3125,0.668584,9.59299,1.30102,-2.50014e-05,0.0404211,-0.0942551,-1.2799,-30.983,-6.23072,33.875,9.84192,0.256418,-1.9235,-0.0139189,0.00249672,0.0327131,-50.9695,24.0885,-13.8609
90987,4,96.0,33.25,-3.97599,2.61961,7.93859,-0.475261,0.770897,1.1829,-21.3905,-30.6193,-93.8711,35.0625,-0.582198,9.48823,-3.63886,-0.144072,0.0749496,-0.110932,-20.1083,-64.1479,-1.04519,33.875,9.48278,-1.48415,-2.37945,0.0184043,0.0656851,-0.0957983,-51.7762,-8.09954,53.5093
298508,2,128.0,31.5,-3.97598,6.91873,9.23265,0.658979,0.166389,0.709433,65.5816,2.09547,-76.9237,35.875,0.544284,5.65384,-7.71041,-0.233143,0.218931,0.0676767,38.3677,-21.4243,74.4272,33.6875,3.11092,4.11673,0.105943,0.584172,-0.243496,1.56413,-50.5722,-53.1565,-30.5318
2112638,7,148.0,28.3125,13.858,4.53365,0.0784286,1.38055,-1.44359,1.98713,19.1324,-43.4564,-14.9626,33.4375,0.863275,3.35798,-1.8503,1.33304,-0.495349,-0.0292563,-7.39166,-37.8395,-14.6507,33.875,3.1889,34.0968,-2.81917,-0.806007,-0.160366,0.151988,-32.8066,34.2357,17.5639
593282,10,105.0,33.25,-8.76836,2.71339,1.51607,-0.165416,0.10484,0.103405,41.3699,-42.5481,0.642038,37.625,0.401422,9.29531,-3.85274,0.0310035,-0.14762,0.232223,-20.8768,-43.6169,4.9772,35.0625,9.64369,-1.87932,-0.600232,-0.0478113,0.111325,0.0635786,-48.2892,13.7574,51.6097
345241,10,134.0,30.1875,3.02532,8.98573,0.478457,0.64674,0.596851,0.529311,-31.8187,-39.4352,-21.2848,33.625,0.487176,9.15546,-2.22445,0.149153,0.76816,0.105174,10.8922,-50.5891,-8.40149,33.0625,11.6176,3.23379,-0.573131,2.06274,-1.30516,2.31508,-62.9004,11.3175,-0.655248
1447409,8,89.0,34.9375,0.564322,8.63579,5.83101,0.0213756,-0.0523694,-0.824237,4.23216,-25.2884,-16.2237,36.8125,0.132146,9.8198,1.1744,0.166319,-0.0194231,-0.0798499,1.76296,-23.485,-5.3622,34.125,9.4082,-2.7006,-2.14113,-0.0542598,-0.0601983,0.0375331,-10.1141,-4.86353,21.8022
1810089,5,66.0,33.5,5.00005,-0.181132,8.12097,-0.0194284,0.00392386,-0.0391623,14.8182,23.6456,-39.245,35.625,0.61224,-1.15854,9.42762,-0.0304253,-0.039099,-0.0280457,37.0473,16.7631,-27.3419,34.625,-0.245124,-9.53958,-3.47114,-0.0100159,0.0221408,-0.013569,-16.8337,27.1915,-5.34859
362026,10,183.0,30.1875,-1.0897,4.70232,5.78101,2.43664,0.905745,-0.0824222,-30.5691,-56.2189,-33.4,33.875,-0.388065,9.68535,-2.24203,-0.00193315,0.16499,-0.230667,-33.0256,-61.0606,13.9627,33.1875,9.88882,2.06799,-0.622215,0.0183566,-0.0249253,0.00969647,-56.5451,-30.9446,33.2525
1903797,4,87.31067961165049,34.125,-6.31209,6.28372,4.08098,-0.103219,0.0275196,-0.099658,21.4797,-29.955,-50.2194,36.5625,1.92065,9.58777,1.13012,0.0509815,0.0259325,-0.101114,4.50585,-32.5956,-22.6349,35.125,9.629,-0.0390784,-2.77282,-0.0224329,-0.0189337,-0.0202887,-36.0531,28.6598,36.4226
507293,11,103.0,34.4375,-5.42477,-0.13719,8.11862,-1.68506,-0.295627,0.139149,17.9095,-5.59515,-42.3207,38.0,-2.45616,4.33982,-8.57364,-0.862912,-1.09705,0.0153569,3.31994,-24.0143,33.5637,35.25,11.2555,-0.548648,-2.05836,-0.711127,0.288489,-0.304379,-47.9695,17.9837,14.5185
1653974,12,116.0,34.6875,-10.8565,1.60061,2.5277,-0.284233,0.17469,0.46425,43.6866,14.2937,-28.617,38.3125,1.11133,13.2848,1.76169,0.0359715,0.0496211,0.178198,9.02824,-36.4173,18.8735,34.3125,21.9913,-22.4731,15.09,-0.494751,-0.753862,-3.08327,-46.8685,5.29129,5.91773
2506897,8,71.0,34.3125,-1.84702,-9.60062,1.04549,-0.0412509,-0.00769819,-0.0222749,6.89272,24.334,-13.9054,37.625,0.363591,9.84859,-0.0218482,0.0137927,0.00239993,-0.0108478,4.83273,-25.5361,-2.22709,33.9375,9.16291,2.61988,-2.56256,0.000968536,0.0156983,0.0257864,-18.5465,15.652,25.4363
2821911,10,177.1818181818182,30.8125,-0.819411,-7.13399,6.20987,-0.650656,-0.0800504,0.137892,10.292,33.0844,-18.5584,34.125,-0.65521,9.85413,0.308165,-0.143958,0.090671,0.0214739,14.2846,-34.5392,10.7212,31.625,9.13672,-0.708104,-4.16294,0.0188888,0.0145068,0.0486668,-18.1067,13.7031,26.8585
1472606,8,80.0,35.0625,-0.593715,9.35801,4.9645,-1.09364,0.343908,-3.12223,-2.7863,-22.3162,-28.8258,37.0,0.708717,8.64119,5.33182,0.915006,-0.289745,-0.0929662,3.75184,-20.8439,-11.2855,34.25,8.677876666666666,-1.6637633333333337,-3.01689,0.2125209333333333,-0.1193168899999999,-0.7182853333333333,-38.667766666666665,-5.000446666666667,16.312266666666666
2055564,0,109.0,30.5625,-9.21641,12.2242,-0.293149,-0.204286,-0.322212,1.78788,64.3623,-14.3417,-2.50128,35.875,4.62462,11.7728,-2.97114,-1.89467,0.6351,0.142468,2.3862,-52.4341,30.4806,34.6875,17.1339,14.0642,-5.98631,1.05849,-2.48209,-3.82011,-50.8764,-15.1618,31.3153
1285348,10,118.0,32.125,-8.94454,2.50059,3.01515,0.0408799,0.0669733,0.234394,42.607,5.05117,-18.1914,35.625,2.14274,9.53918,-0.37582,0.207281,-0.0549291,0.142073,8.83699,-37.0597,23.247,33.5625,9.71322,0.49008,-2.5437,-0.0706771,0.150862,-0.0322149,-44.0099,-10.8592,-8.80402
403504,5,77.0,33.8125,6.8113,2.59698,6.4068,0.0115259,-0.00625724,-0.00399158,6.96111,2.57849,-44.6532,37.125,1.40501,3.72924,8.72912,-0.0347722,0.0358338,-0.00749132,30.8606,-2.3678,-26.7878,34.6875,-0.476985,-9.45997,-3.74414,-0.00461212,-0.0204651,-0.0273459,-12.4493,23.4914,-4.65139
1573728,1,106.0,35.0625,-9.56553,4.16754,2.19199,-3.21279,0.816615,-0.15407,32.7035,-30.5365,-24.2547,37.75,1.76861,10.1642,-2.78533,-0.285778,1.61347,0.100647,5.9124,-33.0355,-21.6356,34.1875,10.1754,-3.96092,-6.48607,3.17477,1.38568,-2.9669,-43.8182,-6.63959,28.2099
96616,4,97.0,33.3125,4.69718,7.61178,1.04696,-0.0970149,0.983314,0.523717,-62.6397,-22.6799,-8.94686,35.1875,-0.732292,9.23458,-2.2468,0.0676796,0.139284,-0.316148,-15.432,-53.49,-10.5209,33.9375,9.94272,-0.474133,-0.876013,1.40696,-0.0313639,-1.67326,-59.3118,-4.48782,42.3456
1763586,10,179.0,33.8125,4.93623,0.163252,8.38827,-0.0532002,0.0860745,0.0791967,0.0484355,-14.2841,-39.1163,36.375,2.42515,9.52437,-2.42287,0.15973,-0.0303438,-0.0347443,-10.3777,-28.9936,17.5683,34.0,6.01906,6.22499,-4.58524,0.72768,0.502023,-0.0803868,-11.8399,-17.1562,15.2861
2755074,2,117.0,30.75,-5.7267,2.82906,8.60443,-0.426302,-0.337995,0.162577,24.1578,-17.3153,-49.2516,34.875,-2.49591,9.78467,-5.26205,-0.229996,0.379876,-0.738739,0.762248,-43.3263,11.241,31.875,7.44707,-3.4658,0.0816989,0.401165,-0.465573,-1.43657,-40.4674,-14.5674,16.0334
2738451,2,123.0,31.3125,-6.08493,9.04797,7.88531,0.583279,0.739139,0.783754,26.785,-20.3079,-46.4829,35.9375,0.0956279,8.38417,-5.09439,0.297721,-0.425006,0.75172,-5.5597,-41.6736,10.4826,32.0,16.7035,-1.3557,-5.04606,0.172955,0.282829,0.827511,-37.1199,-16.7989,14.4876
2678790,10,126.0,33.375,-10.5186,-1.81231,-1.189,1.23379,-0.830601,-1.66912,31.556,13.3454,-2.99643,37.625,-0.405158,11.731,-0.429104,0.0249134,-1.07913,-0.247415,22.2202,-24.8953,4.65846,33.4375,9.47283,2.73968,-3.52487,-0.223779,-0.36153,0.441522,-33.4674,10.3514,27.5175
1059054,12,118.0,29.5,-6.53286,10.0547,1.29386,-0.245178,0.93951,0.486108,9.63014,-35.2544,-25.6492,36.875,-0.669283,15.0528,0.639501,-0.291857,0.282312,0.328841,-4.00782,-32.6075,-14.1193,34.5,12.3319,2.5071,8.85456,1.89272,-1.28828,-1.77357,-27.4334,33.0102,16.4913
1398146,10,132.0,27.5625,-8.52213,4.34504,1.74518,-0.0345839,0.0227858,-0.0429293,55.0542,-19.0628,-11.1151,32.8125,1.06194,9.73634,0.417099,0.0248835,0.0160468,-0.0321947,-3.99621,-54.7521,5.91461,32.75,9.71345,1.15311,-0.0394922,0.0251866,0.000962453,0.0209856,-41.2318,-0.389129,8.63896
2254131,10,80.0,34.0,-5.74853,5.68234,5.20759,0.0208261,-0.0288576,-0.0706119,11.053,-34.3483,-29.5682,37.0625,1.06793,9.69131,-0.666833,0.0332849,0.0123271,-0.0128688,-14.3281,-29.4659,-7.83727,32.9375,9.13797,0.166138,-4.28412,0.122103,-0.0520506,-0.0477898,-16.4784,-29.7119,44.9272
2540336,9,91.0,34.6875,-8.32806,-1.70494,4.23168,-0.0629184,-0.0521323,-0.102539,44.2211,-0.375146,-24.0672,37.6875,-0.496386,9.66695,0.543976,-0.0268296,0.0061622,-0.00020257,-4.01875,-37.4626,-0.951926,34.5,9.05515,-0.515538,-4.4351,0.0319683,-0.000815094,0.0288641,-37.3308,-2.5073,11.2081
2238374,4,72.72727272727273,33.75,-2.43311,1.93409,9.00317,-0.219306,-0.0965042,0.414564,-4.63511,0.351872,-52.7125,36.625,0.467461,9.19738,-1.60541,-0.178632,0.225689,0.202558,-1.459,-37.4208,-7.84357,32.75,9.1801,0.0124202,-4.08979,0.140337,-0.146278,-0.058866,-25.2647,9.889,53.0766
674617,12,122.0,31.3125,-7.98679,1.9468,1.33792,0.321378,-0.356011,-0.806724,21.8231,-41.6563,-22.8489,36.25,-2.0343,7.91403,-8.80994,0.191316,-0.182652,-0.455327,4.8585,-44.6756,14.5596,34.375,11.6348,-7.6147,-1.85627,-4.04737,0.890184,-2.53524,-44.6671,-7.66305,17.9313
1481143,9,83.0,35.125,-8.41873,4.1242,2.59419,-0.333683,0.13406,-0.421769,30.67,-19.01,-22.7457,37.125,0.581239,9.9959,-0.405593,-0.0242689,0.310528,-0.00806809,6.12367,-33.1836,-10.917,34.3125,9.67933,-1.7923,-1.98963,0.588415,-0.0463627,-0.00948548,-25.8554,23.2254,25.1182
1317611,12,109.0,30.75,-9.80094,1.91431,4.58229,-1.3692,1.92271,-1.27164,22.3539,-28.1325,-38.8151,35.5,-1.07296,10.8456,-3.61344,0.0141823,-0.751165,-0.214367,-0.669281,-39.5061,-14.7354,33.3125,14.585,-5.26323,-3.80867,-0.450716,-0.234986,-2.48197,-38.6873,-16.8251,22.7084
2037799,10,96.25,31.375,-8.04816,4.84879,3.32856,-0.0441359,0.123487,0.0955636,35.7534,-6.36813,-12.2029,36.3125,0.825342,9.77289,0.141647,0.0130984,0.0539471,0.0973762,7.85748,-26.4347,10.3484,34.8125,9.59487,-0.0398049,-2.6574,0.0324217,0.0426825,-0.00302403,-28.2027,4.75338,8.25333
1561222,10,98.0,35.1875,0.265117,11.1935,-1.14832,0.551369,-0.397671,0.312964,-5.66571,-35.0528,-5.51463,37.6875,2.43167,6.05767,-8.33578,0.0481725,-0.154481,0.211887,-18.5095,-18.5127,24.6435,34.3125,9.54564,-1.67125,-2.76354,-0.145886,-0.09723,-0.00559315,-20.2908,23.6147,32.9381
375092,10,131.0,30.5,1.70909,9.52777,0.533887,-0.00769358,-0.00256088,-0.0392184,21.3391,-56.8439,1.06454,34.0625,-0.456687,9.53679,-1.97174,0.00560366,-0.00978267,-0.0164502,12.5352,-36.6872,29.3962,33.3125,9.92411,-0.669521,-0.180379,0.00528332,-0.0320248,-0.0124612,-60.0932,-34.4355,-10.6972
2532513,9,80.0,34.5625,-9.05844,-3.0097,1.95439,0.0201093,0.0173785,-0.0315268,44.9339,-0.782367,-19.4731,37.5625,0.0858258,9.7428,0.902766,-0.0303232,-0.0259801,-0.0280706,-5.44286,-36.6359,-1.24854,34.3125,9.05425,-0.477248,-4.47394,0.00526913,-0.00890797,0.0192651,-36.9464,-2.13772,12.06
683385,12,125.0,31.0,-9.97002,2.0246,4.04056,-0.610995,0.610608,-3.28029,37.1292,-13.5301,-28.1603,35.9375,-1.0988,9.13756,-5.62185,-0.629038,-1.3285,1.08489,14.1714,-25.1143,28.7012,34.25,3.31539,0.910311,-2.61192,-2.43289,-0.48832,-1.63723,-16.7344,-25.4887,-10.3375
724857,0,128.0,30.125,-9.00707,-2.00479,-4.39865,0.36461,0.61197,-3.18895,31.7395,-23.0166,-27.7379,35.125,-0.260743,6.93474,-8.0002,-0.788947,0.331841,-0.35238,15.3146,-22.7224,31.7862,34.0,16.9149,-7.45416,-6.97412,-4.06343,0.742104,-2.31847,-26.3195,-24.5969,-2.08019
288989,2,122.0,31.9375,-3.26141,3.77748,6.52135,0.0986194,0.287226,-0.000900282,29.7332,-46.9822,-33.6439,36.5625,-0.621102,7.01591,-7.31002,-0.102311,0.0870587,0.108434,-25.6127,-33.475,49.5374,33.9375,10.1966,4.94295,0.443608,-0.0898721,0.26989,-1.19149,-47.0622,-41.3018,23.5335
2252210,10,79.0,34.0,-9.15301,2.19417,2.51273,-0.0462664,-0.0256522,0.176788,33.3809,-24.2249,3.39562,37.0,-0.265687,9.84609,-0.691497,0.0604786,0.0438743,-0.0270131,-13.8953,-27.559,3.15325,32.9375,9.53183,-1.79199,-1.91397,-0.123437,-0.0165843,0.0818735,-20.7592,-24.8891,36.2548
938154,4,88.0,32.875,-3.01112,9.67873,0.539648,0.161949,-0.0655821,-0.037366,-12.9561,-114.409,28.8432,36.1875,-1.87852,5.28014,-8.45006,0.0850343,0.0201321,-0.0262893,-8.13122,-29.4943,27.0085,33.75,9.32072,-2.59305,-1.29373,-0.0237178,0.0729985,-0.0147036,-36.0696,21.778,38.1034
2248453,4,76.0,33.9375,4.65335,4.6394,8.02254,0.870079,0.0265433,0.0592518,-31.1303,-12.3647,-28.8287,36.875,0.088213,9.78097,0.980127,0.164132,0.100863,-0.0700659,-4.56234,-29.9488,-13.9708,32.875,9.5294,-1.41102,-2.07071,0.0683333,0.0296586,-0.105458,-32.6693,6.37498,45.9631
51732,8,94.0,32.625,-7.95625,4.13273,3.94815,0.0414406,0.0123468,-0.0155343,-1.65886,-49.4643,-29.0292,34.25,1.02029,9.69802,0.300306,0.00771496,0.00225761,-0.00537571,11.3973,-62.6291,-37.7062,33.0,9.07977,1.03636,-3.86563,0.0135773,-0.0113456,-0.025637,-84.6667,38.3451,16.0261
434638,10,95.0,34.0,-9.18617,2.41308,1.51082,0.0080654,0.0160237,-0.0125091,30.8058,-21.3347,-18.9137,37.4375,0.640702,9.40989,-3.50029,8.71404e-06,-0.00504166,-0.00941819,-1.63981,-31.94,1.97525,34.75,9.65878,-1.30264,-1.49122,0.0330924,0.0362566,0.00558259,-19.957,0.558853,39.602
50097,8,92.0,32.5625,-7.83994,4.17046,4.02674,0.0327868,-0.012223,-0.021454,-2.43775,-48.9841,-29.0151,34.25,1.02153,9.73594,0.338926,0.0238336,0.0184634,-0.030474,11.5262,-62.7283,-39.5431,32.9375,9.04085,0.960977,-3.90415,0.0252153,0.00395006,-0.00183076,-84.4435,38.5546,16.274
2127294,7,175.0,28.0625,-12.1659,18.5528,0.488043,-5.2356,2.74457,5.21704,8.1126,-58.6453,-39.651,33.1875,9.01342,23.3883,-3.78125,-0.115123,3.70242,-1.02233,27.8689,-62.7588,1.81065,33.8125,29.0428,13.705,1.00699,0.176113,0.322,-1.69839,-49.7119,-8.74977,-1.16759
2595424,11,106.0,34.6875,-8.14469,-3.63928,4.47188,-1.14964,0.364367,0.376347,37.2666,18.8675,-11.3091,38.25,1.55567,5.00689,-8.23208,0.0487245,0.0471083,-0.129976,16.6465,-10.92,32.8822,34.6875,9.20227,0.451577,-2.08563,0.029757,0.0293877,0.104764,-18.1701,29.4169,28.1165
1020632,10,137.0,31.5,-6.39135,2.35322,1.5144,0.542397,-0.712213,1.66472,33.4279,-25.5234,7.28157,36.6875,0.330053,4.94899,-0.703507,-0.0461257,0.215512,-0.0137853,-22.111,-32.5806,12.3281,34.4375,8.68873,0.348463,-3.0164,-0.279695,0.340482,0.686643,-26.5127,5.58478,27.3313
1493388,9,90.0,35.25,-10.6892,6.99968,-0.297585,-1.72117,-0.22912,3.38712,43.2916,-16.9414,-4.80501,37.1875,0.154494,10.476,-2.00244,-0.280743,1.66861,-0.115543,-15.2141,-39.1305,15.7592,34.4375,7.18692,-0.574669,-0.401986,1.26336,0.7606,-0.943852,-6.53349,-34.7444,34.6143
1835390,8,73.0,33.5,0.0601026,9.33636,3.12697,0.0278857,0.0181716,-0.00800289,3.83778,-23.7781,-16.1008,35.875,0.617988,9.62791,0.87406,0.0555174,0.0152128,-0.0288927,4.61939,-25.5254,-4.90772,34.75,9.4004,-1.02516,-2.73045,0.00765977,-0.0109984,-0.0138332,-18.2938,-3.4554,11.7017
2084854,2,130.0,29.5,-4.95979,4.27493,9.72717,-0.445355,-0.782913,1.34371,40.1407,-24.8575,-31.2595,35.1875,0.212493,7.44623,-10.0842,0.120177,0.283935,-0.534101,-3.78425,-28.0982,38.4778,34.25,12.9159,5.85271,-1.46363,0.32393,0.078779,0.228101,-43.0008,-2.68717,28.9174
401129,5,78.0,33.8125,6.8408,2.55673,6.17645,0.0284499,0.0166685,-0.0322764,7.18583,1.90969,-44.4316,37.125,1.40377,3.69132,8.6905,0.0201243,0.011524,-0.0147409,30.6706,-3.36486,-27.0372,34.625,-0.401737,-9.38451,-3.74384,0.0212129,-0.0174785,0.030255,-13.0034,23.6083,-3.65538
192860,3,170.0,33.6875,-4.36484,5.75341,5.88236,-0.316588,-0.00688882,-0.238922,33.7804,-20.4279,-26.6918,36.9375,-1.89965,9.27036,-3.0812,-0.0234927,-0.0713547,0.0536428,28.0971,-32.86,6.22513,34.875,9.61445,-1.57726,-0.370869,0.126335,-0.0530056,-0.0469998,-35.551,43.4687,14.8126
